,index,subject_uuid,trial_id,session_start_time,lab_name,task_protocol,trial_response_time,trial_response_choice,trial_stim_on_time,trial_stim_contrast_left,trial_stim_contrast_right,trial_feedback_type,probabilityLeft,subject_nickname,institution_short,signed_contrast,trial,choice,correct,choice_right,choice2,correct_easy,rt,previous_choice,previous_outcome,previous_contrast,previous_choice_name,previous_outcome_name,repeat,institution_code,rchoice,uchoice,6,12,25,100,block,intercept,simulation_prob,task,threshold
189521,523352,18a54f60-534b-4ed5-8bda-b434079b8ab8,1,2019-08-22 14:06:34,cortexlab,_iblrig_tasks_trainingChoiceWorld5.2.9,2.3012,CCW,1.7555,0.0,0.125,1.0,50,KS014,UCL,12.5,1,1,1.0,1.0,1.0,,0.5457000000000001,1.0,1.0,100.0,right,post_correct,True,Lab 1,0.6673592639915136,0.9322443219254468,0.9978412406477407,1.7062161469050796,2.14597659112354,2.9485296537033445,,-0.0015498902732843944,,traini,14.929503884826081
189522,523353,18a54f60-534b-4ed5-8bda-b434079b8ab8,2,2019-08-22 14:06:34,cortexlab,_iblrig_tasks_trainingChoiceWorld5.2.9,5.751,CCW,5.1190999999999995,0.0,0.125,1.0,50,KS014,UCL,12.5,2,1,1.0,1.0,1.0,,0.6319000000000008,1.0,1.0,12.5,right,post_correct,True,Lab 1,0.6673592639915136,0.9322443219254468,0.9978412406477407,1.7062161469050796,2.14597659112354,2.9485296537033445,,-0.0015498902732843944,0.9146690843806631,traini,14.929503884826081
189523,523354,18a54f60-534b-4ed5-8bda-b434079b8ab8,3,2019-08-22 14:06:34,cortexlab,_iblrig_tasks_trainingChoiceWorld5.2.9,8.4927,CCW,8.1554,0.0,0.125,1.0,50,KS014,UCL,12.5,3,1,1.0,1.0,1.0,,0.33729999999999905,1.0,1.0,12.5,right,post_correct,True,Lab 1,0.6673592639915136,0.9322443219254468,0.9978412406477407,1.7062161469050796,2.14597659112354,2.9485296537033445,,-0.0015498902732843944,0.9146690843806631,traini,14.929503884826081
189524,523355,18a54f60-534b-4ed5-8bda-b434079b8ab8,4,2019-08-22 14:06:34,cortexlab,_iblrig_tasks_trainingChoiceWorld5.2.9,11.273,CCW,10.8691,0.0,1.0,1.0,50,KS014,UCL,100.0,4,1,1.0,1.0,1.0,1.0,0.40390000000000015,1.0,1.0,12.5,right,post_correct,True,Lab 1,0.6673592639915136,0.9322443219254468,0.9978412406477407,1.7062161469050796,2.14597659112354,2.9485296537033445,,-0.0015498902732843944,0.973771728758393,traini,14.929503884826081
189525,523356,18a54f60-534b-4ed5-8bda-b434079b8ab8,5,2019-08-22 14:06:34,cortexlab,_iblrig_tasks_trainingChoiceWorld5.2.9,16.0064,CW,15.471899999999998,0.125,0.0,1.0,50,KS014,UCL,-12.5,5,-1,1.0,0.0,0.0,,0.5345000000000013,1.0,1.0,100.0,right,post_correct,False,Lab 1,0.6673592639915136,0.9322443219254468,0.9978412406477407,1.7062161469050796,2.14597659112354,2.9485296537033445,,-0.0015498902732843944,0.261071514380921,traini,14.929503884826081
189526,523357,18a54f60-534b-4ed5-8bda-b434079b8ab8,6,2019-08-22 14:06:34,cortexlab,_iblrig_tasks_trainingChoiceWorld5.2.9,21.1796,CW,20.418899999999997,0.0625,0.0,1.0,50,KS014,UCL,-6.25,6,-1,1.0,0.0,0.0,,0.7607000000000035,-1.0,1.0,12.5,left,post_correct,True,Lab 1,0.6673592639915136,0.9322443219254468,0.9978412406477407,1.7062161469050796,2.14597659112354,2.9485296537033445,,-0.0015498902732843944,0.15885791661906887,traini,14.929503884826081
189527,523358,18a54f60-534b-4ed5-8bda-b434079b8ab8,7,2019-08-22 14:06:34,cortexlab,_iblrig_tasks_trainingChoiceWorld5.2.9,24.632,CW,24.388499999999997,1.0,0.0,1.0,50,KS014,UCL,-100.0,7,-1,1.0,0.0,0.0,1.0,0.2435000000000045,-1.0,1.0,6.25,left,post_correct,True,Lab 1,0.6673592639915136,0.9322443219254468,0.9978412406477407,1.7062161469050796,2.14597659112354,2.9485296537033445,,-0.0015498902732843944,0.026149217924616483,traini,14.929503884826081
189528,523359,18a54f60-534b-4ed5-8bda-b434079b8ab8,8,2019-08-22 14:06:34,cortexlab,_iblrig_tasks_trainingChoiceWorld5.2.9,27.2055,CW,26.9688,1.0,0.0,1.0,50,KS014,UCL,-100.0,8,-1,1.0,0.0,0.0,1.0,0.23669999999999902,-1.0,1.0,100.0,left,post_correct,True,Lab 1,0.6673592639915136,0.9322443219254468,0.9978412406477407,1.7062161469050796,2.14597659112354,2.9485296537033445,,-0.0015498902732843944,0.026149217924616483,traini,14.929503884826081
189529,523360,18a54f60-534b-4ed5-8bda-b434079b8ab8,9,2019-08-22 14:06:34,cortexlab,_iblrig_tasks_trainingChoiceWorld5.2.9,33.0095,CW,30.6549,0.0,0.0,1.0,50,KS014,UCL,0.0,9,-1,,0.0,0.0,,2.3546000000000014,-1.0,1.0,100.0,left,post_correct,True,Lab 1,0.6673592639915136,0.9322443219254468,0.9978412406477407,1.7062161469050796,2.14597659112354,2.9485296537033445,,-0.0015498902732843944,0.3387411424221579,traini,14.929503884826081
189530,523361,18a54f60-534b-4ed5-8bda-b434079b8ab8,10,2019-08-22 14:06:34,cortexlab,_iblrig_tasks_trainingChoiceWorld5.2.9,37.0583,CW,35.468599999999995,0.0,0.125,-1.0,50,KS014,UCL,12.5,10,-1,0.0,0.0,0.0,,1.5897000000000077,-1.0,1.0,0.0,left,post_correct,True,Lab 1,0.6673592639915136,0.9322443219254468,0.9978412406477407,1.7062161469050796,2.14597659112354,2.9485296537033445,,-0.0015498902732843944,0.7383300543658898,traini,14.929503884826081
189531,523362,18a54f60-534b-4ed5-8bda-b434079b8ab8,11,2019-08-22 14:06:34,cortexlab,_iblrig_tasks_trainingChoiceWorld5.2.9,40.6884,CW,40.4046,0.125,0.0,1.0,50,KS014,UCL,-12.5,11,-1,1.0,0.0,0.0,,0.2837999999999994,-1.0,-1.0,12.5,left,post_error,True,Lab 1,0.6673592639915136,0.9322443219254468,0.9978412406477407,1.7062161469050796,2.14597659112354,2.9485296537033445,,-0.0015498902732843944,0.06660739153794186,traini,14.929503884826081
189532,523363,18a54f60-534b-4ed5-8bda-b434079b8ab8,12,2019-08-22 14:06:34,cortexlab,_iblrig_tasks_trainingChoiceWorld5.2.9,43.9765,CW,43.7851,0.0625,0.0,1.0,50,KS014,UCL,-6.25,12,-1,1.0,0.0,0.0,,0.19140000000000157,-1.0,1.0,12.5,left,post_correct,True,Lab 1,0.6673592639915136,0.9322443219254468,0.9978412406477407,1.7062161469050796,2.14597659112354,2.9485296537033445,,-0.0015498902732843944,0.15885791661906887,traini,14.929503884826081
189533,523364,18a54f60-534b-4ed5-8bda-b434079b8ab8,13,2019-08-22 14:06:34,cortexlab,_iblrig_tasks_trainingChoiceWorld5.2.9,47.1857,CW,46.9213,0.0,0.0,1.0,50,KS014,UCL,0.0,13,-1,,0.0,0.0,,0.26439999999999486,-1.0,1.0,6.25,left,post_correct,True,Lab 1,0.6673592639915136,0.9322443219254468,0.9978412406477407,1.7062161469050796,2.14597659112354,2.9485296537033445,,-0.0015498902732843944,0.3387411424221579,traini,14.929503884826081
189534,523365,18a54f60-534b-4ed5-8bda-b434079b8ab8,14,2019-08-22 14:06:34,cortexlab,_iblrig_tasks_trainingChoiceWorld5.2.9,50.4862,CW,50.234899999999996,0.0625,0.0,1.0,50,KS014,UCL,-6.25,14,-1,1.0,0.0,0.0,,0.2513000000000005,-1.0,1.0,0.0,left,post_correct,True,Lab 1,0.6673592639915136,0.9322443219254468,0.9978412406477407,1.7062161469050796,2.14597659112354,2.9485296537033445,,-0.0015498902732843944,0.15885791661906887,traini,14.929503884826081
189535,523366,18a54f60-534b-4ed5-8bda-b434079b8ab8,15,2019-08-22 14:06:34,cortexlab,_iblrig_tasks_trainingChoiceWorld5.2.9,57.1908,CW,56.987700000000004,1.0,0.0,1.0,50,KS014,UCL,-100.0,15,-1,1.0,0.0,0.0,1.0,0.20309999999999917,-1.0,1.0,6.25,left,post_correct,True,Lab 1,0.6673592639915136,0.9322443219254468,0.9978412406477407,1.7062161469050796,2.14597659112354,2.9485296537033445,,-0.0015498902732843944,0.026149217924616483,traini,14.929503884826081
189536,523367,18a54f60-534b-4ed5-8bda-b434079b8ab8,16,2019-08-22 14:06:34,cortexlab,_iblrig_tasks_trainingChoiceWorld5.2.9,61.0668,CCW,60.6182,0.0,0.125,1.0,50,KS014,UCL,12.5,16,1,1.0,1.0,1.0,,0.448599999999999,-1.0,1.0,100.0,left,post_correct,False,Lab 1,0.6673592639915136,0.9322443219254468,0.9978412406477407,1.7062161469050796,2.14597659112354,2.9485296537033445,,-0.0015498902732843944,0.7383300543658898,traini,14.929503884826081
189537,523368,18a54f60-534b-4ed5-8bda-b434079b8ab8,17,2019-08-22 14:06:34,cortexlab,_iblrig_tasks_trainingChoiceWorld5.2.9,63.738,CW,63.48779999999999,0.25,0.0,1.0,50,KS014,UCL,-25.0,17,-1,1.0,0.0,0.0,,0.25020000000000664,1.0,1.0,12.5,right,post_correct,False,Lab 1,0.6673592639915136,0.9322443219254468,0.9978412406477407,1.7062161469050796,2.14597659112354,2.9485296537033445,,-0.0015498902732843944,0.18540216342048807,traini,14.929503884826081
189538,523369,18a54f60-534b-4ed5-8bda-b434079b8ab8,18,2019-08-22 14:06:34,cortexlab,_iblrig_tasks_trainingChoiceWorld5.2.9,66.5787,CW,66.4514,0.0,0.25,-1.0,50,KS014,UCL,25.0,18,-1,0.0,0.0,0.0,,0.1272999999999911,-1.0,1.0,25.0,left,post_correct,True,Lab 1,0.6673592639915136,0.9322443219254468,0.9978412406477407,1.7062161469050796,2.14597659112354,2.9485296537033445,,-0.0015498902732843944,0.8141292256926564,traini,14.929503884826081
189539,523370,18a54f60-534b-4ed5-8bda-b434079b8ab8,19,2019-08-22 14:06:34,cortexlab,_iblrig_tasks_trainingChoiceWorld5.2.9,70.2785,CW,70.0543,0.0,0.125,-1.0,50,KS014,UCL,12.5,19,-1,0.0,0.0,0.0,,0.22419999999999618,-1.0,-1.0,25.0,left,post_error,True,Lab 1,0.6673592639915136,0.9322443219254468,0.9978412406477407,1.7062161469050796,2.14597659112354,2.9485296537033445,,-0.0015498902732843944,0.6840445738305136,traini,14.929503884826081
189540,523371,18a54f60-534b-4ed5-8bda-b434079b8ab8,20,2019-08-22 14:06:34,cortexlab,_iblrig_tasks_trainingChoiceWorld5.2.9,73.9181,CW,73.60119999999999,0.0,0.125,-1.0,50,KS014,UCL,12.5,20,-1,0.0,0.0,0.0,,0.31690000000000396,-1.0,-1.0,12.5,left,post_error,True,Lab 1,0.6673592639915136,0.9322443219254468,0.9978412406477407,1.7062161469050796,2.14597659112354,2.9485296537033445,,-0.0015498902732843944,0.6840445738305136,traini,14.929503884826081
189541,523372,18a54f60-534b-4ed5-8bda-b434079b8ab8,21,2019-08-22 14:06:34,cortexlab,_iblrig_tasks_trainingChoiceWorld5.2.9,77.5452,CW,77.28729999999999,0.0625,0.0,1.0,50,KS014,UCL,-6.25,21,-1,1.0,0.0,0.0,,0.25790000000000646,-1.0,-1.0,12.5,left,post_error,True,Lab 1,0.6673592639915136,0.9322443219254468,0.9978412406477407,1.7062161469050796,2.14597659112354,2.9485296537033445,,-0.0015498902732843944,0.1265696707087076,traini,14.929503884826081
189542,523373,18a54f60-534b-4ed5-8bda-b434079b8ab8,22,2019-08-22 14:06:34,cortexlab,_iblrig_tasks_trainingChoiceWorld5.2.9,80.5669,CW,80.16779999999999,0.125,0.0,1.0,50,KS014,UCL,-12.5,22,-1,1.0,0.0,0.0,,0.39910000000001844,-1.0,1.0,6.25,left,post_correct,True,Lab 1,0.6673592639915136,0.9322443219254468,0.9978412406477407,1.7062161469050796,2.14597659112354,2.9485296537033445,,-0.0015498902732843944,0.08508928991624062,traini,14.929503884826081
189543,523374,18a54f60-534b-4ed5-8bda-b434079b8ab8,23,2019-08-22 14:06:34,cortexlab,_iblrig_tasks_trainingChoiceWorld5.2.9,83.808,CW,83.5705,1.0,0.0,1.0,50,KS014,UCL,-100.0,23,-1,1.0,0.0,0.0,1.0,0.23750000000001137,-1.0,1.0,12.5,left,post_correct,True,Lab 1,0.6673592639915136,0.9322443219254468,0.9978412406477407,1.7062161469050796,2.14597659112354,2.9485296537033445,,-0.0015498902732843944,0.026149217924616483,traini,14.929503884826081
189544,523375,18a54f60-534b-4ed5-8bda-b434079b8ab8,24,2019-08-22 14:06:34,cortexlab,_iblrig_tasks_trainingChoiceWorld5.2.9,86.5562,CW,86.26769999999999,0.0,0.25,-1.0,50,KS014,UCL,25.0,24,-1,0.0,0.0,0.0,,0.2885000000000133,-1.0,1.0,100.0,left,post_correct,True,Lab 1,0.6673592639915136,0.9322443219254468,0.9978412406477407,1.7062161469050796,2.14597659112354,2.9485296537033445,,-0.0015498902732843944,0.8141292256926564,traini,14.929503884826081
189545,523376,18a54f60-534b-4ed5-8bda-b434079b8ab8,25,2019-08-22 14:06:34,cortexlab,_iblrig_tasks_trainingChoiceWorld5.2.9,91.514,CW,91.2538,0.0,0.0625,-1.0,50,KS014,UCL,6.25,25,-1,0.0,0.0,0.0,,0.26019999999999754,-1.0,-1.0,25.0,left,post_error,True,Lab 1,0.6673592639915136,0.9322443219254468,0.9978412406477407,1.7062161469050796,2.14597659112354,2.9485296537033445,,-0.0015498902732843944,0.5160062859750487,traini,14.929503884826081
189546,523377,18a54f60-534b-4ed5-8bda-b434079b8ab8,26,2019-08-22 14:06:34,cortexlab,_iblrig_tasks_trainingChoiceWorld5.2.9,96.0978,CCW,95.7674,0.0,0.125,1.0,50,KS014,UCL,12.5,26,1,1.0,1.0,1.0,,0.3304000000000116,-1.0,-1.0,6.25,left,post_error,False,Lab 1,0.6673592639915136,0.9322443219254468,0.9978412406477407,1.7062161469050796,2.14597659112354,2.9485296537033445,,-0.0015498902732843944,0.6840445738305136,traini,14.929503884826081
189547,523378,18a54f60-534b-4ed5-8bda-b434079b8ab8,27,2019-08-22 14:06:34,cortexlab,_iblrig_tasks_trainingChoiceWorld5.2.9,107.563,CW,98.7036,0.0,0.0,1.0,50,KS014,UCL,0.0,27,-1,,0.0,0.0,,8.859400000000008,1.0,1.0,12.5,right,post_correct,False,Lab 1,0.6673592639915136,0.9322443219254468,0.9978412406477407,1.7062161469050796,2.14597659112354,2.9485296537033445,,-0.0015498902732843944,0.6605641737404705,traini,14.929503884826081
189548,523379,18a54f60-534b-4ed5-8bda-b434079b8ab8,28,2019-08-22 14:06:34,cortexlab,_iblrig_tasks_trainingChoiceWorld5.2.9,111.558,CW,111.30059999999999,1.0,0.0,1.0,50,KS014,UCL,-100.0,28,-1,1.0,0.0,0.0,1.0,0.2574000000000183,-1.0,1.0,0.0,left,post_correct,True,Lab 1,0.6673592639915136,0.9322443219254468,0.9978412406477407,1.7062161469050796,2.14597659112354,2.9485296537033445,,-0.0015498902732843944,0.026149217924616483,traini,14.929503884826081
189549,523380,18a54f60-534b-4ed5-8bda-b434079b8ab8,29,2019-08-22 14:06:34,cortexlab,_iblrig_tasks_trainingChoiceWorld5.2.9,114.666,CW,114.4199,0.125,0.0,1.0,50,KS014,UCL,-12.5,29,-1,1.0,0.0,0.0,,0.24609999999999843,-1.0,1.0,100.0,left,post_correct,True,Lab 1,0.6673592639915136,0.9322443219254468,0.9978412406477407,1.7062161469050796,2.14597659112354,2.9485296537033445,,-0.0015498902732843944,0.08508928991624062,traini,14.929503884826081
189550,523381,18a54f60-534b-4ed5-8bda-b434079b8ab8,30,2019-08-22 14:06:34,cortexlab,_iblrig_tasks_trainingChoiceWorld5.2.9,117.808,CW,117.5838,1.0,0.0,1.0,50,KS014,UCL,-100.0,30,-1,1.0,0.0,0.0,1.0,0.2242000000000104,-1.0,1.0,12.5,left,post_correct,True,Lab 1,0.6673592639915136,0.9322443219254468,0.9978412406477407,1.7062161469050796,2.14597659112354,2.9485296537033445,,-0.0015498902732843944,0.026149217924616483,traini,14.929503884826081
189551,523382,18a54f60-534b-4ed5-8bda-b434079b8ab8,31,2019-08-22 14:06:34,cortexlab,_iblrig_tasks_trainingChoiceWorld5.2.9,122.515,CCW,121.8533,0.0,0.125,1.0,50,KS014,UCL,12.5,31,1,1.0,1.0,1.0,,0.6616999999999962,-1.0,1.0,100.0,left,post_correct,False,Lab 1,0.6673592639915136,0.9322443219254468,0.9978412406477407,1.7062161469050796,2.14597659112354,2.9485296537033445,,-0.0015498902732843944,0.7383300543658898,traini,14.929503884826081
189552,523383,18a54f60-534b-4ed5-8bda-b434079b8ab8,32,2019-08-22 14:06:34,cortexlab,_iblrig_tasks_trainingChoiceWorld5.2.9,127.673,CCW,126.9003,0.125,0.0,-1.0,50,KS014,UCL,-12.5,32,1,0.0,1.0,1.0,,0.7727000000000004,1.0,1.0,12.5,right,post_correct,True,Lab 1,0.6673592639915136,0.9322443219254468,0.9978412406477407,1.7062161469050796,2.14597659112354,2.9485296537033445,,-0.0015498902732843944,0.261071514380921,traini,14.929503884826081
189553,523384,18a54f60-534b-4ed5-8bda-b434079b8ab8,33,2019-08-22 14:06:34,cortexlab,_iblrig_tasks_trainingChoiceWorld5.2.9,132.625,CCW,132.06950000000003,0.0,0.0,-1.0,50,KS014,UCL,0.0,33,1,,1.0,1.0,,0.5554999999999666,1.0,-1.0,12.5,right,post_error,True,Lab 1,0.6673592639915136,0.9322443219254468,0.9978412406477407,1.7062161469050796,2.14597659112354,2.9485296537033445,,-0.0015498902732843944,0.717216149380176,traini,14.929503884826081
189554,523385,18a54f60-534b-4ed5-8bda-b434079b8ab8,34,2019-08-22 14:06:34,cortexlab,_iblrig_tasks_trainingChoiceWorld5.2.9,136.652,CCW,136.2167,0.0,0.0625,1.0,50,KS014,UCL,6.25,34,1,1.0,1.0,1.0,,0.4352999999999838,1.0,-1.0,0.0,right,post_error,True,Lab 1,0.6673592639915136,0.9322443219254468,0.9978412406477407,1.7062161469050796,2.14597659112354,2.9485296537033445,,-0.0015498902732843944,0.873087252350696,traini,14.929503884826081
189555,523386,18a54f60-534b-4ed5-8bda-b434079b8ab8,35,2019-08-22 14:06:34,cortexlab,_iblrig_tasks_trainingChoiceWorld5.2.9,140.166,CW,139.8029,0.0625,0.0,1.0,50,KS014,UCL,-6.25,35,-1,1.0,0.0,0.0,,0.36310000000000286,1.0,1.0,6.25,right,post_correct,False,Lab 1,0.6673592639915136,0.9322443219254468,0.9978412406477407,1.7062161469050796,2.14597659112354,2.9485296537033445,,-0.0015498902732843944,0.4177463209203398,traini,14.929503884826081
189556,523387,18a54f60-534b-4ed5-8bda-b434079b8ab8,36,2019-08-22 14:06:34,cortexlab,_iblrig_tasks_trainingChoiceWorld5.2.9,150.696,CCW,149.76640000000003,0.0,0.125,1.0,50,KS014,UCL,12.5,36,1,1.0,1.0,1.0,,0.9295999999999651,-1.0,1.0,6.25,left,post_correct,False,Lab 1,0.6673592639915136,0.9322443219254468,0.9978412406477407,1.7062161469050796,2.14597659112354,2.9485296537033445,,-0.0015498902732843944,0.7383300543658898,traini,14.929503884826081
189557,523388,18a54f60-534b-4ed5-8bda-b434079b8ab8,37,2019-08-22 14:06:34,cortexlab,_iblrig_tasks_trainingChoiceWorld5.2.9,157.29,CCW,156.536,0.0,0.25,1.0,50,KS014,UCL,25.0,37,1,1.0,1.0,1.0,,0.7539999999999907,1.0,1.0,12.5,right,post_correct,True,Lab 1,0.6673592639915136,0.9322443219254468,0.9978412406477407,1.7062161469050796,2.14597659112354,2.9485296537033445,,-0.0015498902732843944,0.9433094024800716,traini,14.929503884826081
189558,523389,18a54f60-534b-4ed5-8bda-b434079b8ab8,38,2019-08-22 14:06:34,cortexlab,_iblrig_tasks_trainingChoiceWorld5.2.9,162.432,CCW,162.1329,0.0,0.0625,1.0,50,KS014,UCL,6.25,38,1,1.0,1.0,1.0,,0.2990999999999815,1.0,1.0,25.0,right,post_correct,True,Lab 1,0.6673592639915136,0.9322443219254468,0.9978412406477407,1.7062161469050796,2.14597659112354,2.9485296537033445,,-0.0015498902732843944,0.8407274461273994,traini,14.929503884826081
189559,523390,18a54f60-534b-4ed5-8bda-b434079b8ab8,39,2019-08-22 14:06:34,cortexlab,_iblrig_tasks_trainingChoiceWorld5.2.9,165.638,CCW,165.28580000000002,0.0,0.0625,1.0,50,KS014,UCL,6.25,39,1,1.0,1.0,1.0,,0.3521999999999821,1.0,1.0,6.25,right,post_correct,True,Lab 1,0.6673592639915136,0.9322443219254468,0.9978412406477407,1.7062161469050796,2.14597659112354,2.9485296537033445,,-0.0015498902732843944,0.8407274461273994,traini,14.929503884826081
189560,523391,18a54f60-534b-4ed5-8bda-b434079b8ab8,40,2019-08-22 14:06:34,cortexlab,_iblrig_tasks_trainingChoiceWorld5.2.9,171.373,CCW,171.116,0.0,0.25,1.0,50,KS014,UCL,25.0,40,1,1.0,1.0,1.0,,0.2569999999999766,1.0,1.0,6.25,right,post_correct,True,Lab 1,0.6673592639915136,0.9322443219254468,0.9978412406477407,1.7062161469050796,2.14597659112354,2.9485296537033445,,-0.0015498902732843944,0.9433094024800716,traini,14.929503884826081
189561,523392,18a54f60-534b-4ed5-8bda-b434079b8ab8,41,2019-08-22 14:06:34,cortexlab,_iblrig_tasks_trainingChoiceWorld5.2.9,177.644,CW,177.2687,0.25,0.0,1.0,50,KS014,UCL,-25.0,41,-1,1.0,0.0,0.0,,0.37530000000000996,1.0,1.0,25.0,right,post_correct,False,Lab 1,0.6673592639915136,0.9322443219254468,0.9978412406477407,1.7062161469050796,2.14597659112354,2.9485296537033445,,-0.0015498902732843944,0.18540216342048807,traini,14.929503884826081
189562,523393,18a54f60-534b-4ed5-8bda-b434079b8ab8,42,2019-08-22 14:06:34,cortexlab,_iblrig_tasks_trainingChoiceWorld5.2.9,181.007,CW,180.66590000000002,1.0,0.0,1.0,50,KS014,UCL,-100.0,42,-1,1.0,0.0,0.0,1.0,0.3410999999999831,-1.0,1.0,25.0,left,post_correct,True,Lab 1,0.6673592639915136,0.9322443219254468,0.9978412406477407,1.7062161469050796,2.14597659112354,2.9485296537033445,,-0.0015498902732843944,0.026149217924616483,traini,14.929503884826081
189563,523394,18a54f60-534b-4ed5-8bda-b434079b8ab8,43,2019-08-22 14:06:34,cortexlab,_iblrig_tasks_trainingChoiceWorld5.2.9,190.64,CW,190.16870000000003,0.125,0.0,1.0,50,KS014,UCL,-12.5,43,-1,1.0,0.0,0.0,,0.47129999999995675,-1.0,1.0,100.0,left,post_correct,True,Lab 1,0.6673592639915136,0.9322443219254468,0.9978412406477407,1.7062161469050796,2.14597659112354,2.9485296537033445,,-0.0015498902732843944,0.08508928991624062,traini,14.929503884826081
189564,523395,18a54f60-534b-4ed5-8bda-b434079b8ab8,44,2019-08-22 14:06:34,cortexlab,_iblrig_tasks_trainingChoiceWorld5.2.9,193.441,CW,193.0157,0.25,0.0,1.0,50,KS014,UCL,-25.0,44,-1,1.0,0.0,0.0,,0.4252999999999929,-1.0,1.0,12.5,left,post_correct,True,Lab 1,0.6673592639915136,0.9322443219254468,0.9978412406477407,1.7062161469050796,2.14597659112354,2.9485296537033445,,-0.0015498902732843944,0.056525058866658415,traini,14.929503884826081
189565,523396,18a54f60-534b-4ed5-8bda-b434079b8ab8,45,2019-08-22 14:06:34,cortexlab,_iblrig_tasks_trainingChoiceWorld5.2.9,202.143,CW,201.8851,0.0,0.0625,-1.0,50,KS014,UCL,6.25,45,-1,0.0,0.0,0.0,,0.25790000000000646,-1.0,1.0,25.0,left,post_correct,True,Lab 1,0.6673592639915136,0.9322443219254468,0.9978412406477407,1.7062161469050796,2.14597659112354,2.9485296537033445,,-0.0015498902732843944,0.5814995143439406,traini,14.929503884826081
189566,523397,18a54f60-534b-4ed5-8bda-b434079b8ab8,46,2019-08-22 14:06:34,cortexlab,_iblrig_tasks_trainingChoiceWorld5.2.9,206.258,CCW,205.89870000000002,0.0,0.0,-1.0,50,KS014,UCL,0.0,46,1,,1.0,1.0,,0.3592999999999904,-1.0,-1.0,6.25,left,post_error,False,Lab 1,0.6673592639915136,0.9322443219254468,0.9978412406477407,1.7062161469050796,2.14597659112354,2.9485296537033445,,-0.0015498902732843944,0.2821555855089851,traini,14.929503884826081
189567,523398,18a54f60-534b-4ed5-8bda-b434079b8ab8,47,2019-08-22 14:06:34,cortexlab,_iblrig_tasks_trainingChoiceWorld5.2.9,210.727,CCW,210.43470000000002,0.0,0.0625,1.0,50,KS014,UCL,6.25,47,1,1.0,1.0,1.0,,0.29229999999998313,1.0,-1.0,0.0,right,post_error,True,Lab 1,0.6673592639915136,0.9322443219254468,0.9978412406477407,1.7062161469050796,2.14597659112354,2.9485296537033445,,-0.0015498902732843944,0.873087252350696,traini,14.929503884826081
189568,523399,18a54f60-534b-4ed5-8bda-b434079b8ab8,48,2019-08-22 14:06:34,cortexlab,_iblrig_tasks_trainingChoiceWorld5.2.9,215.309,CCW,215.04870000000003,0.0,1.0,1.0,50,KS014,UCL,100.0,48,1,1.0,1.0,1.0,1.0,0.26029999999997244,1.0,1.0,6.25,right,post_correct,True,Lab 1,0.6673592639915136,0.9322443219254468,0.9978412406477407,1.7062161469050796,2.14597659112354,2.9485296537033445,,-0.0015498902732843944,0.973771728758393,traini,14.929503884826081
189569,523400,18a54f60-534b-4ed5-8bda-b434079b8ab8,49,2019-08-22 14:06:34,cortexlab,_iblrig_tasks_trainingChoiceWorld5.2.9,218.221,CCW,217.9512,0.0,0.25,1.0,50,KS014,UCL,25.0,49,1,1.0,1.0,1.0,,0.2698000000000036,1.0,1.0,100.0,right,post_correct,True,Lab 1,0.6673592639915136,0.9322443219254468,0.9978412406477407,1.7062161469050796,2.14597659112354,2.9485296537033445,,-0.0015498902732843944,0.9433094024800716,traini,14.929503884826081
189570,523401,18a54f60-534b-4ed5-8bda-b434079b8ab8,50,2019-08-22 14:06:34,cortexlab,_iblrig_tasks_trainingChoiceWorld5.2.9,221.112,CCW,220.8151,0.0,0.125,1.0,50,KS014,UCL,12.5,50,1,1.0,1.0,1.0,,0.2968999999999937,1.0,1.0,25.0,right,post_correct,True,Lab 1,0.6673592639915136,0.9322443219254468,0.9978412406477407,1.7062161469050796,2.14597659112354,2.9485296537033445,,-0.0015498902732843944,0.9146690843806631,traini,14.929503884826081
189571,523402,18a54f60-534b-4ed5-8bda-b434079b8ab8,51,2019-08-22 14:06:34,cortexlab,_iblrig_tasks_trainingChoiceWorld5.2.9,228.062,CCW,227.6679,0.0,0.0,-1.0,50,KS014,UCL,0.0,51,1,,1.0,1.0,,0.3941000000000088,1.0,1.0,12.5,right,post_correct,True,Lab 1,0.6673592639915136,0.9322443219254468,0.9978412406477407,1.7062161469050796,2.14597659112354,2.9485296537033445,,-0.0015498902732843944,0.6605641737404705,traini,14.929503884826081
189572,523403,18a54f60-534b-4ed5-8bda-b434079b8ab8,52,2019-08-22 14:06:34,cortexlab,_iblrig_tasks_trainingChoiceWorld5.2.9,232.366,CCW,231.9815,0.0,0.0,1.0,50,KS014,UCL,0.0,52,1,,1.0,1.0,,0.38450000000000273,1.0,-1.0,0.0,right,post_error,True,Lab 1,0.6673592639915136,0.9322443219254468,0.9978412406477407,1.7062161469050796,2.14597659112354,2.9485296537033445,,-0.0015498902732843944,0.717216149380176,traini,14.929503884826081
189573,523404,18a54f60-534b-4ed5-8bda-b434079b8ab8,53,2019-08-22 14:06:34,cortexlab,_iblrig_tasks_trainingChoiceWorld5.2.9,235.235,CCW,234.91780000000003,0.0,0.0625,1.0,50,KS014,UCL,6.25,53,1,1.0,1.0,1.0,,0.3171999999999855,1.0,1.0,0.0,right,post_correct,True,Lab 1,0.6673592639915136,0.9322443219254468,0.9978412406477407,1.7062161469050796,2.14597659112354,2.9485296537033445,,-0.0015498902732843944,0.8407274461273994,traini,14.929503884826081
189574,523405,18a54f60-534b-4ed5-8bda-b434079b8ab8,54,2019-08-22 14:06:34,cortexlab,_iblrig_tasks_trainingChoiceWorld5.2.9,239.998,CW,239.53150000000002,0.125,0.0,1.0,50,KS014,UCL,-12.5,54,-1,1.0,0.0,0.0,,0.46649999999996794,1.0,1.0,6.25,right,post_correct,False,Lab 1,0.6673592639915136,0.9322443219254468,0.9978412406477407,1.7062161469050796,2.14597659112354,2.9485296537033445,,-0.0015498902732843944,0.261071514380921,traini,14.929503884826081
189575,523406,18a54f60-534b-4ed5-8bda-b434079b8ab8,55,2019-08-22 14:06:34,cortexlab,_iblrig_tasks_trainingChoiceWorld5.2.9,243.099,CW,242.5343,0.0625,0.0,1.0,50,KS014,UCL,-6.25,55,-1,1.0,0.0,0.0,,0.5646999999999878,-1.0,1.0,12.5,left,post_correct,True,Lab 1,0.6673592639915136,0.9322443219254468,0.9978412406477407,1.7062161469050796,2.14597659112354,2.9485296537033445,,-0.0015498902732843944,0.15885791661906887,traini,14.929503884826081
189576,523407,18a54f60-534b-4ed5-8bda-b434079b8ab8,56,2019-08-22 14:06:34,cortexlab,_iblrig_tasks_trainingChoiceWorld5.2.9,247.679,CW,247.448,0.25,0.0,1.0,50,KS014,UCL,-25.0,56,-1,1.0,0.0,0.0,,0.23099999999999454,-1.0,1.0,6.25,left,post_correct,True,Lab 1,0.6673592639915136,0.9322443219254468,0.9978412406477407,1.7062161469050796,2.14597659112354,2.9485296537033445,,-0.0015498902732843944,0.056525058866658415,traini,14.929503884826081
189577,523408,18a54f60-534b-4ed5-8bda-b434079b8ab8,57,2019-08-22 14:06:34,cortexlab,_iblrig_tasks_trainingChoiceWorld5.2.9,250.637,CW,250.3008,0.0625,0.0,1.0,50,KS014,UCL,-6.25,57,-1,1.0,0.0,0.0,,0.33619999999999095,-1.0,1.0,25.0,left,post_correct,True,Lab 1,0.6673592639915136,0.9322443219254468,0.9978412406477407,1.7062161469050796,2.14597659112354,2.9485296537033445,,-0.0015498902732843944,0.15885791661906887,traini,14.929503884826081
189578,523409,18a54f60-534b-4ed5-8bda-b434079b8ab8,58,2019-08-22 14:06:34,cortexlab,_iblrig_tasks_trainingChoiceWorld5.2.9,258.438,CCW,257.8811,0.0,0.0625,1.0,50,KS014,UCL,6.25,58,1,1.0,1.0,1.0,,0.5568999999999846,-1.0,1.0,6.25,left,post_correct,False,Lab 1,0.6673592639915136,0.9322443219254468,0.9978412406477407,1.7062161469050796,2.14597659112354,2.9485296537033445,,-0.0015498902732843944,0.5814995143439406,traini,14.929503884826081
189579,523410,18a54f60-534b-4ed5-8bda-b434079b8ab8,59,2019-08-22 14:06:34,cortexlab,_iblrig_tasks_trainingChoiceWorld5.2.9,261.941,CCW,261.40040000000005,0.25,0.0,-1.0,50,KS014,UCL,-25.0,59,1,0.0,1.0,1.0,,0.5405999999999267,1.0,1.0,6.25,right,post_correct,True,Lab 1,0.6673592639915136,0.9322443219254468,0.9978412406477407,1.7062161469050796,2.14597659112354,2.9485296537033445,,-0.0015498902732843944,0.18540216342048807,traini,14.929503884826081
189580,523411,18a54f60-534b-4ed5-8bda-b434079b8ab8,60,2019-08-22 14:06:34,cortexlab,_iblrig_tasks_trainingChoiceWorld5.2.9,267.139,CW,266.8976,0.25,0.0,1.0,50,KS014,UCL,-25.0,60,-1,1.0,0.0,0.0,,0.24139999999999873,1.0,-1.0,25.0,right,post_error,False,Lab 1,0.6673592639915136,0.9322443219254468,0.9978412406477407,1.7062161469050796,2.14597659112354,2.9485296537033445,,-0.0015498902732843944,0.22876776837074236,traini,14.929503884826081
189581,523412,18a54f60-534b-4ed5-8bda-b434079b8ab8,61,2019-08-22 14:06:34,cortexlab,_iblrig_tasks_trainingChoiceWorld5.2.9,270.484,CW,269.9171,0.0,0.25,-1.0,50,KS014,UCL,25.0,61,-1,0.0,0.0,0.0,,0.5668999999999755,-1.0,1.0,25.0,left,post_correct,True,Lab 1,0.6673592639915136,0.9322443219254468,0.9978412406477407,1.7062161469050796,2.14597659112354,2.9485296537033445,,-0.0015498902732843944,0.8141292256926564,traini,14.929503884826081
189582,523413,18a54f60-534b-4ed5-8bda-b434079b8ab8,62,2019-08-22 14:06:34,cortexlab,_iblrig_tasks_trainingChoiceWorld5.2.9,275.565,CCW,275.2641,0.0,0.25,1.0,50,KS014,UCL,25.0,62,1,1.0,1.0,1.0,,0.3009000000000128,-1.0,-1.0,25.0,left,post_error,False,Lab 1,0.6673592639915136,0.9322443219254468,0.9978412406477407,1.7062161469050796,2.14597659112354,2.9485296537033445,,-0.0015498902732843944,0.7706848680475364,traini,14.929503884826081
189583,523414,18a54f60-534b-4ed5-8bda-b434079b8ab8,63,2019-08-22 14:06:34,cortexlab,_iblrig_tasks_trainingChoiceWorld5.2.9,279.117,CW,278.88370000000003,1.0,0.0,1.0,50,KS014,UCL,-100.0,63,-1,1.0,0.0,0.0,1.0,0.23329999999998563,1.0,1.0,25.0,right,post_correct,False,Lab 1,0.6673592639915136,0.9322443219254468,0.9978412406477407,1.7062161469050796,2.14597659112354,2.9485296537033445,,-0.0015498902732843944,0.09256420688948142,traini,14.929503884826081
189584,523415,18a54f60-534b-4ed5-8bda-b434079b8ab8,64,2019-08-22 14:06:34,cortexlab,_iblrig_tasks_trainingChoiceWorld5.2.9,283.028,CCW,282.69730000000004,0.0,0.0625,1.0,50,KS014,UCL,6.25,64,1,1.0,1.0,1.0,,0.3306999999999789,-1.0,1.0,100.0,left,post_correct,False,Lab 1,0.6673592639915136,0.9322443219254468,0.9978412406477407,1.7062161469050796,2.14597659112354,2.9485296537033445,,-0.0015498902732843944,0.5814995143439406,traini,14.929503884826081
189585,523416,18a54f60-534b-4ed5-8bda-b434079b8ab8,65,2019-08-22 14:06:34,cortexlab,_iblrig_tasks_trainingChoiceWorld5.2.9,293.846,CCW,293.28319999999997,0.0,1.0,1.0,50,KS014,UCL,100.0,65,1,1.0,1.0,1.0,1.0,0.5628000000000384,1.0,1.0,6.25,right,post_correct,True,Lab 1,0.6673592639915136,0.9322443219254468,0.9978412406477407,1.7062161469050796,2.14597659112354,2.9485296537033445,,-0.0015498902732843944,0.973771728758393,traini,14.929503884826081
189586,523417,18a54f60-534b-4ed5-8bda-b434079b8ab8,66,2019-08-22 14:06:34,cortexlab,_iblrig_tasks_trainingChoiceWorld5.2.9,301.066,CCW,300.8303,0.0,0.0,1.0,50,KS014,UCL,0.0,66,1,,1.0,1.0,,0.23569999999995161,1.0,1.0,100.0,right,post_correct,True,Lab 1,0.6673592639915136,0.9322443219254468,0.9978412406477407,1.7062161469050796,2.14597659112354,2.9485296537033445,,-0.0015498902732843944,0.6605641737404705,traini,14.929503884826081
189587,523418,18a54f60-534b-4ed5-8bda-b434079b8ab8,67,2019-08-22 14:06:34,cortexlab,_iblrig_tasks_trainingChoiceWorld5.2.9,308.922,CCW,308.5997,0.0,0.25,1.0,50,KS014,UCL,25.0,67,1,1.0,1.0,1.0,,0.3223000000000411,1.0,1.0,0.0,right,post_correct,True,Lab 1,0.6673592639915136,0.9322443219254468,0.9978412406477407,1.7062161469050796,2.14597659112354,2.9485296537033445,,-0.0015498902732843944,0.9433094024800716,traini,14.929503884826081
189588,523419,18a54f60-534b-4ed5-8bda-b434079b8ab8,68,2019-08-22 14:06:34,cortexlab,_iblrig_tasks_trainingChoiceWorld5.2.9,315.672,CCW,315.36339999999996,0.0,0.0625,1.0,50,KS014,UCL,6.25,68,1,1.0,1.0,1.0,,0.3086000000000695,1.0,1.0,25.0,right,post_correct,True,Lab 1,0.6673592639915136,0.9322443219254468,0.9978412406477407,1.7062161469050796,2.14597659112354,2.9485296537033445,,-0.0015498902732843944,0.8407274461273994,traini,14.929503884826081
189589,523420,18a54f60-534b-4ed5-8bda-b434079b8ab8,69,2019-08-22 14:06:34,cortexlab,_iblrig_tasks_trainingChoiceWorld5.2.9,318.812,CW,318.53000000000003,1.0,0.0,1.0,50,KS014,UCL,-100.0,69,-1,1.0,0.0,0.0,1.0,0.28199999999998226,1.0,1.0,6.25,right,post_correct,False,Lab 1,0.6673592639915136,0.9322443219254468,0.9978412406477407,1.7062161469050796,2.14597659112354,2.9485296537033445,,-0.0015498902732843944,0.09256420688948142,traini,14.929503884826081
189590,523421,18a54f60-534b-4ed5-8bda-b434079b8ab8,70,2019-08-22 14:06:34,cortexlab,_iblrig_tasks_trainingChoiceWorld5.2.9,324.458,CCW,324.1328,0.0,0.0,-1.0,50,KS014,UCL,0.0,70,1,,1.0,1.0,,0.3252000000000521,-1.0,1.0,100.0,left,post_correct,False,Lab 1,0.6673592639915136,0.9322443219254468,0.9978412406477407,1.7062161469050796,2.14597659112354,2.9485296537033445,,-0.0015498902732843944,0.3387411424221579,traini,14.929503884826081
189591,523422,18a54f60-534b-4ed5-8bda-b434079b8ab8,71,2019-08-22 14:06:34,cortexlab,_iblrig_tasks_trainingChoiceWorld5.2.9,329.527,CCW,329.0963,0.0,0.0625,1.0,50,KS014,UCL,6.25,71,1,1.0,1.0,1.0,,0.43070000000000164,1.0,-1.0,0.0,right,post_error,True,Lab 1,0.6673592639915136,0.9322443219254468,0.9978412406477407,1.7062161469050796,2.14597659112354,2.9485296537033445,,-0.0015498902732843944,0.873087252350696,traini,14.929503884826081
189592,523423,18a54f60-534b-4ed5-8bda-b434079b8ab8,72,2019-08-22 14:06:34,cortexlab,_iblrig_tasks_trainingChoiceWorld5.2.9,333.106,CCW,332.6493,0.0,1.0,1.0,50,KS014,UCL,100.0,72,1,1.0,1.0,1.0,1.0,0.4567000000000121,1.0,1.0,6.25,right,post_correct,True,Lab 1,0.6673592639915136,0.9322443219254468,0.9978412406477407,1.7062161469050796,2.14597659112354,2.9485296537033445,,-0.0015498902732843944,0.973771728758393,traini,14.929503884826081
189593,523424,18a54f60-534b-4ed5-8bda-b434079b8ab8,73,2019-08-22 14:06:34,cortexlab,_iblrig_tasks_trainingChoiceWorld5.2.9,338.727,CCW,338.29630000000003,0.125,0.0,-1.0,50,KS014,UCL,-12.5,73,1,0.0,1.0,1.0,,0.4306999999999448,1.0,1.0,100.0,right,post_correct,True,Lab 1,0.6673592639915136,0.9322443219254468,0.9978412406477407,1.7062161469050796,2.14597659112354,2.9485296537033445,,-0.0015498902732843944,0.261071514380921,traini,14.929503884826081
189594,523425,18a54f60-534b-4ed5-8bda-b434079b8ab8,74,2019-08-22 14:06:34,cortexlab,_iblrig_tasks_trainingChoiceWorld5.2.9,342.557,CW,342.2825,0.125,0.0,1.0,50,KS014,UCL,-12.5,74,-1,1.0,0.0,0.0,,0.2744999999999891,1.0,-1.0,12.5,right,post_error,False,Lab 1,0.6673592639915136,0.9322443219254468,0.9978412406477407,1.7062161469050796,2.14597659112354,2.9485296537033445,,-0.0015498902732843944,0.3152858605772385,traini,14.929503884826081
189595,523426,18a54f60-534b-4ed5-8bda-b434079b8ab8,75,2019-08-22 14:06:34,cortexlab,_iblrig_tasks_trainingChoiceWorld5.2.9,348.318,CW,348.0793,1.0,0.0,1.0,50,KS014,UCL,-100.0,75,-1,1.0,0.0,0.0,1.0,0.23869999999999436,-1.0,1.0,12.5,left,post_correct,True,Lab 1,0.6673592639915136,0.9322443219254468,0.9978412406477407,1.7062161469050796,2.14597659112354,2.9485296537033445,,-0.0015498902732843944,0.026149217924616483,traini,14.929503884826081
189596,523427,18a54f60-534b-4ed5-8bda-b434079b8ab8,76,2019-08-22 14:06:34,cortexlab,_iblrig_tasks_trainingChoiceWorld5.2.9,351.454,CCW,350.6488,0.0,0.0625,1.0,50,KS014,UCL,6.25,76,1,1.0,1.0,1.0,,0.8052000000000135,-1.0,1.0,100.0,left,post_correct,False,Lab 1,0.6673592639915136,0.9322443219254468,0.9978412406477407,1.7062161469050796,2.14597659112354,2.9485296537033445,,-0.0015498902732843944,0.5814995143439406,traini,14.929503884826081
189597,523428,18a54f60-534b-4ed5-8bda-b434079b8ab8,77,2019-08-22 14:06:34,cortexlab,_iblrig_tasks_trainingChoiceWorld5.2.9,356.263,CCW,355.86220000000003,0.0,0.25,1.0,50,KS014,UCL,25.0,77,1,1.0,1.0,1.0,,0.400799999999947,1.0,1.0,6.25,right,post_correct,True,Lab 1,0.6673592639915136,0.9322443219254468,0.9978412406477407,1.7062161469050796,2.14597659112354,2.9485296537033445,,-0.0015498902732843944,0.9433094024800716,traini,14.929503884826081
189598,523429,18a54f60-534b-4ed5-8bda-b434079b8ab8,78,2019-08-22 14:06:34,cortexlab,_iblrig_tasks_trainingChoiceWorld5.2.9,360.776,CCW,360.2321,0.0,0.25,1.0,50,KS014,UCL,25.0,78,1,1.0,1.0,1.0,,0.5439000000000078,1.0,1.0,25.0,right,post_correct,True,Lab 1,0.6673592639915136,0.9322443219254468,0.9978412406477407,1.7062161469050796,2.14597659112354,2.9485296537033445,,-0.0015498902732843944,0.9433094024800716,traini,14.929503884826081
189599,523430,18a54f60-534b-4ed5-8bda-b434079b8ab8,79,2019-08-22 14:06:34,cortexlab,_iblrig_tasks_trainingChoiceWorld5.2.9,368.645,CCW,368.32900000000006,0.0,0.25,1.0,50,KS014,UCL,25.0,79,1,1.0,1.0,1.0,,0.31599999999991724,1.0,1.0,25.0,right,post_correct,True,Lab 1,0.6673592639915136,0.9322443219254468,0.9978412406477407,1.7062161469050796,2.14597659112354,2.9485296537033445,,-0.0015498902732843944,0.9433094024800716,traini,14.929503884826081
189600,523431,18a54f60-534b-4ed5-8bda-b434079b8ab8,80,2019-08-22 14:06:34,cortexlab,_iblrig_tasks_trainingChoiceWorld5.2.9,376.764,CW,376.49850000000004,0.125,0.0,1.0,50,KS014,UCL,-12.5,80,-1,1.0,0.0,0.0,,0.26549999999997453,1.0,1.0,25.0,right,post_correct,False,Lab 1,0.6673592639915136,0.9322443219254468,0.9978412406477407,1.7062161469050796,2.14597659112354,2.9485296537033445,,-0.0015498902732843944,0.261071514380921,traini,14.929503884826081
189601,523432,18a54f60-534b-4ed5-8bda-b434079b8ab8,81,2019-08-22 14:06:34,cortexlab,_iblrig_tasks_trainingChoiceWorld5.2.9,379.689,CCW,379.412201,0.0,0.0,1.0,50,KS014,UCL,0.0,81,1,,1.0,1.0,,0.27679900000003954,-1.0,1.0,12.5,left,post_correct,False,Lab 1,0.6673592639915136,0.9322443219254468,0.9978412406477407,1.7062161469050796,2.14597659112354,2.9485296537033445,,-0.0015498902732843944,0.3387411424221579,traini,14.929503884826081
189602,523433,18a54f60-534b-4ed5-8bda-b434079b8ab8,82,2019-08-22 14:06:34,cortexlab,_iblrig_tasks_trainingChoiceWorld5.2.9,384.196,CW,383.9149,0.125,0.0,1.0,50,KS014,UCL,-12.5,82,-1,1.0,0.0,0.0,,0.28110000000003765,1.0,1.0,0.0,right,post_correct,False,Lab 1,0.6673592639915136,0.9322443219254468,0.9978412406477407,1.7062161469050796,2.14597659112354,2.9485296537033445,,-0.0015498902732843944,0.261071514380921,traini,14.929503884826081
189603,523434,18a54f60-534b-4ed5-8bda-b434079b8ab8,83,2019-08-22 14:06:34,cortexlab,_iblrig_tasks_trainingChoiceWorld5.2.9,387.709,CW,387.562,0.0,0.25,-1.0,50,KS014,UCL,25.0,83,-1,0.0,0.0,0.0,,0.14699999999999136,-1.0,1.0,12.5,left,post_correct,True,Lab 1,0.6673592639915136,0.9322443219254468,0.9978412406477407,1.7062161469050796,2.14597659112354,2.9485296537033445,,-0.0015498902732843944,0.8141292256926564,traini,14.929503884826081
189604,523435,18a54f60-534b-4ed5-8bda-b434079b8ab8,84,2019-08-22 14:06:34,cortexlab,_iblrig_tasks_trainingChoiceWorld5.2.9,392.851,CCW,392.2983,0.0,0.25,1.0,50,KS014,UCL,25.0,84,1,1.0,1.0,1.0,,0.5527000000000157,-1.0,-1.0,25.0,left,post_error,False,Lab 1,0.6673592639915136,0.9322443219254468,0.9978412406477407,1.7062161469050796,2.14597659112354,2.9485296537033445,,-0.0015498902732843944,0.7706848680475364,traini,14.929503884826081
189605,523436,18a54f60-534b-4ed5-8bda-b434079b8ab8,85,2019-08-22 14:06:34,cortexlab,_iblrig_tasks_trainingChoiceWorld5.2.9,396.176,CW,395.82860000000005,0.0,0.0,-1.0,50,KS014,UCL,0.0,85,-1,,0.0,0.0,,0.3473999999999364,1.0,1.0,25.0,right,post_correct,False,Lab 1,0.6673592639915136,0.9322443219254468,0.9978412406477407,1.7062161469050796,2.14597659112354,2.9485296537033445,,-0.0015498902732843944,0.6605641737404705,traini,14.929503884826081
189606,523437,18a54f60-534b-4ed5-8bda-b434079b8ab8,86,2019-08-22 14:06:34,cortexlab,_iblrig_tasks_trainingChoiceWorld5.2.9,400.13,CW,399.88140000000004,0.125,0.0,1.0,50,KS014,UCL,-12.5,86,-1,1.0,0.0,0.0,,0.24859999999995352,-1.0,-1.0,0.0,left,post_error,True,Lab 1,0.6673592639915136,0.9322443219254468,0.9978412406477407,1.7062161469050796,2.14597659112354,2.9485296537033445,,-0.0015498902732843944,0.06660739153794186,traini,14.929503884826081
189607,523438,18a54f60-534b-4ed5-8bda-b434079b8ab8,87,2019-08-22 14:06:34,cortexlab,_iblrig_tasks_trainingChoiceWorld5.2.9,403.15,CW,402.8449,1.0,0.0,1.0,50,KS014,UCL,-100.0,87,-1,1.0,0.0,0.0,1.0,0.3050999999999817,-1.0,1.0,12.5,left,post_correct,True,Lab 1,0.6673592639915136,0.9322443219254468,0.9978412406477407,1.7062161469050796,2.14597659112354,2.9485296537033445,,-0.0015498902732843944,0.026149217924616483,traini,14.929503884826081
189608,523439,18a54f60-534b-4ed5-8bda-b434079b8ab8,88,2019-08-22 14:06:34,cortexlab,_iblrig_tasks_trainingChoiceWorld5.2.9,407.662,CW,407.3978,0.125,0.0,1.0,50,KS014,UCL,-12.5,88,-1,1.0,0.0,0.0,,0.2641999999999598,-1.0,1.0,100.0,left,post_correct,True,Lab 1,0.6673592639915136,0.9322443219254468,0.9978412406477407,1.7062161469050796,2.14597659112354,2.9485296537033445,,-0.0015498902732843944,0.08508928991624062,traini,14.929503884826081
189609,523440,18a54f60-534b-4ed5-8bda-b434079b8ab8,89,2019-08-22 14:06:34,cortexlab,_iblrig_tasks_trainingChoiceWorld5.2.9,414.083,CW,413.7114,0.25,0.0,1.0,50,KS014,UCL,-25.0,89,-1,1.0,0.0,0.0,,0.3716000000000008,-1.0,1.0,12.5,left,post_correct,True,Lab 1,0.6673592639915136,0.9322443219254468,0.9978412406477407,1.7062161469050796,2.14597659112354,2.9485296537033445,,-0.0015498902732843944,0.056525058866658415,traini,14.929503884826081
189610,523441,18a54f60-534b-4ed5-8bda-b434079b8ab8,90,2019-08-22 14:06:34,cortexlab,_iblrig_tasks_trainingChoiceWorld5.2.9,417.205,CCW,416.8143,0.0,0.0625,1.0,50,KS014,UCL,6.25,90,1,1.0,1.0,1.0,,0.3906999999999812,-1.0,1.0,25.0,left,post_correct,False,Lab 1,0.6673592639915136,0.9322443219254468,0.9978412406477407,1.7062161469050796,2.14597659112354,2.9485296537033445,,-0.0015498902732843944,0.5814995143439406,traini,14.929503884826081
189611,523442,18a54f60-534b-4ed5-8bda-b434079b8ab8,91,2019-08-22 14:06:34,cortexlab,_iblrig_tasks_trainingChoiceWorld5.2.9,419.884,CW,419.6446,0.25,0.0,1.0,50,KS014,UCL,-25.0,91,-1,1.0,0.0,0.0,,0.23939999999998918,1.0,1.0,6.25,right,post_correct,False,Lab 1,0.6673592639915136,0.9322443219254468,0.9978412406477407,1.7062161469050796,2.14597659112354,2.9485296537033445,,-0.0015498902732843944,0.18540216342048807,traini,14.929503884826081
189612,523443,18a54f60-534b-4ed5-8bda-b434079b8ab8,92,2019-08-22 14:06:34,cortexlab,_iblrig_tasks_trainingChoiceWorld5.2.9,427.085,CCW,426.7307,0.0,0.25,1.0,50,KS014,UCL,25.0,92,1,1.0,1.0,1.0,,0.35429999999996653,-1.0,1.0,25.0,left,post_correct,False,Lab 1,0.6673592639915136,0.9322443219254468,0.9978412406477407,1.7062161469050796,2.14597659112354,2.9485296537033445,,-0.0015498902732843944,0.8141292256926564,traini,14.929503884826081
189613,523444,18a54f60-534b-4ed5-8bda-b434079b8ab8,93,2019-08-22 14:06:34,cortexlab,_iblrig_tasks_trainingChoiceWorld5.2.9,429.8,CW,429.5278,0.0625,0.0,1.0,50,KS014,UCL,-6.25,93,-1,1.0,0.0,0.0,,0.272199999999998,1.0,1.0,25.0,right,post_correct,False,Lab 1,0.6673592639915136,0.9322443219254468,0.9978412406477407,1.7062161469050796,2.14597659112354,2.9485296537033445,,-0.0015498902732843944,0.4177463209203398,traini,14.929503884826081
189614,523445,18a54f60-534b-4ed5-8bda-b434079b8ab8,94,2019-08-22 14:06:34,cortexlab,_iblrig_tasks_trainingChoiceWorld5.2.9,432.657,CCW,432.197,0.0,0.125,1.0,50,KS014,UCL,12.5,94,1,1.0,1.0,1.0,,0.45999999999997954,-1.0,1.0,6.25,left,post_correct,False,Lab 1,0.6673592639915136,0.9322443219254468,0.9978412406477407,1.7062161469050796,2.14597659112354,2.9485296537033445,,-0.0015498902732843944,0.7383300543658898,traini,14.929503884826081
189615,523446,18a54f60-534b-4ed5-8bda-b434079b8ab8,95,2019-08-22 14:06:34,cortexlab,_iblrig_tasks_trainingChoiceWorld5.2.9,439.591,CCW,439.31100000000004,0.0,0.25,1.0,50,KS014,UCL,25.0,95,1,1.0,1.0,1.0,,0.2799999999999727,1.0,1.0,12.5,right,post_correct,True,Lab 1,0.6673592639915136,0.9322443219254468,0.9978412406477407,1.7062161469050796,2.14597659112354,2.9485296537033445,,-0.0015498902732843944,0.9433094024800716,traini,14.929503884826081
189616,523447,18a54f60-534b-4ed5-8bda-b434079b8ab8,96,2019-08-22 14:06:34,cortexlab,_iblrig_tasks_trainingChoiceWorld5.2.9,444.657,CCW,444.463801,0.0625,0.0,-1.0,50,KS014,UCL,-6.25,96,1,0.0,1.0,1.0,,0.1931989999999928,1.0,1.0,25.0,right,post_correct,True,Lab 1,0.6673592639915136,0.9322443219254468,0.9978412406477407,1.7062161469050796,2.14597659112354,2.9485296537033445,,-0.0015498902732843944,0.4177463209203398,traini,14.929503884826081
189617,523448,18a54f60-534b-4ed5-8bda-b434079b8ab8,97,2019-08-22 14:06:34,cortexlab,_iblrig_tasks_trainingChoiceWorld5.2.9,449.283,CW,449.0109,0.125,0.0,1.0,50,KS014,UCL,-12.5,97,-1,1.0,0.0,0.0,,0.2721000000000231,1.0,-1.0,6.25,right,post_error,False,Lab 1,0.6673592639915136,0.9322443219254468,0.9978412406477407,1.7062161469050796,2.14597659112354,2.9485296537033445,,-0.0015498902732843944,0.3152858605772385,traini,14.929503884826081
189618,523449,18a54f60-534b-4ed5-8bda-b434079b8ab8,98,2019-08-22 14:06:34,cortexlab,_iblrig_tasks_trainingChoiceWorld5.2.9,454.411,CW,454.0634,0.0625,0.0,1.0,50,KS014,UCL,-6.25,98,-1,1.0,0.0,0.0,,0.3475999999999999,-1.0,1.0,12.5,left,post_correct,True,Lab 1,0.6673592639915136,0.9322443219254468,0.9978412406477407,1.7062161469050796,2.14597659112354,2.9485296537033445,,-0.0015498902732843944,0.15885791661906887,traini,14.929503884826081
189619,523450,18a54f60-534b-4ed5-8bda-b434079b8ab8,99,2019-08-22 14:06:34,cortexlab,_iblrig_tasks_trainingChoiceWorld5.2.9,457.479,CW,457.3107,0.0,0.0,-1.0,50,KS014,UCL,0.0,99,-1,,0.0,0.0,,0.1682999999999879,-1.0,1.0,6.25,left,post_correct,True,Lab 1,0.6673592639915136,0.9322443219254468,0.9978412406477407,1.7062161469050796,2.14597659112354,2.9485296537033445,,-0.0015498902732843944,0.3387411424221579,traini,14.929503884826081
189620,523451,18a54f60-534b-4ed5-8bda-b434079b8ab8,100,2019-08-22 14:06:34,cortexlab,_iblrig_tasks_trainingChoiceWorld5.2.9,461.43,CCW,461.0802,0.0,0.25,1.0,50,KS014,UCL,25.0,100,1,1.0,1.0,1.0,,0.3498000000000161,-1.0,-1.0,0.0,left,post_error,False,Lab 1,0.6673592639915136,0.9322443219254468,0.9978412406477407,1.7062161469050796,2.14597659112354,2.9485296537033445,,-0.0015498902732843944,0.7706848680475364,traini,14.929503884826081
189621,523452,18a54f60-534b-4ed5-8bda-b434079b8ab8,101,2019-08-22 14:06:34,cortexlab,_iblrig_tasks_trainingChoiceWorld5.2.9,466.847,CW,466.52720000000005,1.0,0.0,1.0,50,KS014,UCL,-100.0,101,-1,1.0,0.0,0.0,1.0,0.3197999999999297,1.0,1.0,25.0,right,post_correct,False,Lab 1,0.6673592639915136,0.9322443219254468,0.9978412406477407,1.7062161469050796,2.14597659112354,2.9485296537033445,,-0.0015498902732843944,0.09256420688948142,traini,14.929503884826081
189622,523453,18a54f60-534b-4ed5-8bda-b434079b8ab8,102,2019-08-22 14:06:34,cortexlab,_iblrig_tasks_trainingChoiceWorld5.2.9,476.857,CCW,476.54650000000004,0.0,1.0,1.0,50,KS014,UCL,100.0,102,1,1.0,1.0,1.0,1.0,0.31049999999999045,-1.0,1.0,100.0,left,post_correct,False,Lab 1,0.6673592639915136,0.9322443219254468,0.9978412406477407,1.7062161469050796,2.14597659112354,2.9485296537033445,,-0.0015498902732843944,0.9071750946694592,traini,14.929503884826081
189623,523454,18a54f60-534b-4ed5-8bda-b434079b8ab8,103,2019-08-22 14:06:34,cortexlab,_iblrig_tasks_trainingChoiceWorld5.2.9,481.04,CW,480.8101,0.0,0.0,1.0,50,KS014,UCL,0.0,103,-1,,0.0,0.0,,0.2299000000000433,1.0,1.0,100.0,right,post_correct,False,Lab 1,0.6673592639915136,0.9322443219254468,0.9978412406477407,1.7062161469050796,2.14597659112354,2.9485296537033445,,-0.0015498902732843944,0.6605641737404705,traini,14.929503884826081
189624,523455,18a54f60-534b-4ed5-8bda-b434079b8ab8,104,2019-08-22 14:06:34,cortexlab,_iblrig_tasks_trainingChoiceWorld5.2.9,483.84,CW,483.563,1.0,0.0,1.0,50,KS014,UCL,-100.0,104,-1,1.0,0.0,0.0,1.0,0.2769999999999868,-1.0,1.0,0.0,left,post_correct,True,Lab 1,0.6673592639915136,0.9322443219254468,0.9978412406477407,1.7062161469050796,2.14597659112354,2.9485296537033445,,-0.0015498902732843944,0.026149217924616483,traini,14.929503884826081
189625,523456,18a54f60-534b-4ed5-8bda-b434079b8ab8,105,2019-08-22 14:06:34,cortexlab,_iblrig_tasks_trainingChoiceWorld5.2.9,488.027,CCW,487.7767,0.0,0.25,1.0,50,KS014,UCL,25.0,105,1,1.0,1.0,1.0,,0.25029999999998154,-1.0,1.0,100.0,left,post_correct,False,Lab 1,0.6673592639915136,0.9322443219254468,0.9978412406477407,1.7062161469050796,2.14597659112354,2.9485296537033445,,-0.0015498902732843944,0.8141292256926564,traini,14.929503884826081
189626,523457,18a54f60-534b-4ed5-8bda-b434079b8ab8,106,2019-08-22 14:06:34,cortexlab,_iblrig_tasks_trainingChoiceWorld5.2.9,492.054,CW,491.74620000000004,0.25,0.0,1.0,50,KS014,UCL,-25.0,106,-1,1.0,0.0,0.0,,0.30779999999992924,1.0,1.0,25.0,right,post_correct,False,Lab 1,0.6673592639915136,0.9322443219254468,0.9978412406477407,1.7062161469050796,2.14597659112354,2.9485296537033445,,-0.0015498902732843944,0.18540216342048807,traini,14.929503884826081
189627,523458,18a54f60-534b-4ed5-8bda-b434079b8ab8,107,2019-08-22 14:06:34,cortexlab,_iblrig_tasks_trainingChoiceWorld5.2.9,498.916,CW,498.37660000000005,0.125,0.0,1.0,50,KS014,UCL,-12.5,107,-1,1.0,0.0,0.0,,0.5393999999999437,-1.0,1.0,25.0,left,post_correct,True,Lab 1,0.6673592639915136,0.9322443219254468,0.9978412406477407,1.7062161469050796,2.14597659112354,2.9485296537033445,,-0.0015498902732843944,0.08508928991624062,traini,14.929503884826081
189628,523459,18a54f60-534b-4ed5-8bda-b434079b8ab8,108,2019-08-22 14:06:34,cortexlab,_iblrig_tasks_trainingChoiceWorld5.2.9,502.266,CW,501.7294,0.0,0.0,-1.0,50,KS014,UCL,0.0,108,-1,,0.0,0.0,,0.5366000000000213,-1.0,1.0,12.5,left,post_correct,True,Lab 1,0.6673592639915136,0.9322443219254468,0.9978412406477407,1.7062161469050796,2.14597659112354,2.9485296537033445,,-0.0015498902732843944,0.3387411424221579,traini,14.929503884826081
189629,523460,18a54f60-534b-4ed5-8bda-b434079b8ab8,109,2019-08-22 14:06:34,cortexlab,_iblrig_tasks_trainingChoiceWorld5.2.9,506.82,CCW,506.493,0.0,0.125,1.0,50,KS014,UCL,12.5,109,1,1.0,1.0,1.0,,0.3269999999999982,-1.0,-1.0,0.0,left,post_error,False,Lab 1,0.6673592639915136,0.9322443219254468,0.9978412406477407,1.7062161469050796,2.14597659112354,2.9485296537033445,,-0.0015498902732843944,0.6840445738305136,traini,14.929503884826081
189630,523461,18a54f60-534b-4ed5-8bda-b434079b8ab8,110,2019-08-22 14:06:34,cortexlab,_iblrig_tasks_trainingChoiceWorld5.2.9,512.625,CCW,512.3794,0.0,0.125,1.0,50,KS014,UCL,12.5,110,1,1.0,1.0,1.0,,0.24559999999996762,1.0,1.0,12.5,right,post_correct,True,Lab 1,0.6673592639915136,0.9322443219254468,0.9978412406477407,1.7062161469050796,2.14597659112354,2.9485296537033445,,-0.0015498902732843944,0.9146690843806631,traini,14.929503884826081
189631,523462,18a54f60-534b-4ed5-8bda-b434079b8ab8,111,2019-08-22 14:06:34,cortexlab,_iblrig_tasks_trainingChoiceWorld5.2.9,517.679,CCW,517.4095,0.0625,0.0,-1.0,50,KS014,UCL,-6.25,111,1,0.0,1.0,1.0,,0.26949999999999363,1.0,1.0,12.5,right,post_correct,True,Lab 1,0.6673592639915136,0.9322443219254468,0.9978412406477407,1.7062161469050796,2.14597659112354,2.9485296537033445,,-0.0015498902732843944,0.4177463209203398,traini,14.929503884826081
189632,523463,18a54f60-534b-4ed5-8bda-b434079b8ab8,112,2019-08-22 14:06:34,cortexlab,_iblrig_tasks_trainingChoiceWorld5.2.9,522.427,CCW,522.1124,0.0,0.0,1.0,50,KS014,UCL,0.0,112,1,,1.0,1.0,,0.3146000000000413,1.0,-1.0,6.25,right,post_error,True,Lab 1,0.6673592639915136,0.9322443219254468,0.9978412406477407,1.7062161469050796,2.14597659112354,2.9485296537033445,,-0.0015498902732843944,0.717216149380176,traini,14.929503884826081
189633,523464,18a54f60-534b-4ed5-8bda-b434079b8ab8,113,2019-08-22 14:06:34,cortexlab,_iblrig_tasks_trainingChoiceWorld5.2.9,525.297,CCW,525.0095,0.0,1.0,1.0,50,KS014,UCL,100.0,113,1,1.0,1.0,1.0,1.0,0.28750000000002274,1.0,1.0,0.0,right,post_correct,True,Lab 1,0.6673592639915136,0.9322443219254468,0.9978412406477407,1.7062161469050796,2.14597659112354,2.9485296537033445,,-0.0015498902732843944,0.973771728758393,traini,14.929503884826081
189634,523465,18a54f60-534b-4ed5-8bda-b434079b8ab8,114,2019-08-22 14:06:34,cortexlab,_iblrig_tasks_trainingChoiceWorld5.2.9,529.251,CW,529.0456,1.0,0.0,1.0,50,KS014,UCL,-100.0,114,-1,1.0,0.0,0.0,1.0,0.20539999999994052,1.0,1.0,100.0,right,post_correct,False,Lab 1,0.6673592639915136,0.9322443219254468,0.9978412406477407,1.7062161469050796,2.14597659112354,2.9485296537033445,,-0.0015498902732843944,0.09256420688948142,traini,14.929503884826081
189635,523466,18a54f60-534b-4ed5-8bda-b434079b8ab8,115,2019-08-22 14:06:34,cortexlab,_iblrig_tasks_trainingChoiceWorld5.2.9,532.688,CW,532.4426,0.25,0.0,1.0,50,KS014,UCL,-25.0,115,-1,1.0,0.0,0.0,,0.24540000000001783,-1.0,1.0,100.0,left,post_correct,True,Lab 1,0.6673592639915136,0.9322443219254468,0.9978412406477407,1.7062161469050796,2.14597659112354,2.9485296537033445,,-0.0015498902732843944,0.056525058866658415,traini,14.929503884826081
189636,523467,18a54f60-534b-4ed5-8bda-b434079b8ab8,116,2019-08-22 14:06:34,cortexlab,_iblrig_tasks_trainingChoiceWorld5.2.9,537.889,CW,537.5787,0.0,0.0,-1.0,50,KS014,UCL,0.0,116,-1,,0.0,0.0,,0.3102999999999838,-1.0,1.0,25.0,left,post_correct,True,Lab 1,0.6673592639915136,0.9322443219254468,0.9978412406477407,1.7062161469050796,2.14597659112354,2.9485296537033445,,-0.0015498902732843944,0.3387411424221579,traini,14.929503884826081
189637,523468,18a54f60-534b-4ed5-8bda-b434079b8ab8,117,2019-08-22 14:06:34,cortexlab,_iblrig_tasks_trainingChoiceWorld5.2.9,543.574,CCW,543.2090000000001,0.0,0.125,1.0,50,KS014,UCL,12.5,117,1,1.0,1.0,1.0,,0.3649999999998954,-1.0,-1.0,0.0,left,post_error,False,Lab 1,0.6673592639915136,0.9322443219254468,0.9978412406477407,1.7062161469050796,2.14597659112354,2.9485296537033445,,-0.0015498902732843944,0.6840445738305136,traini,14.929503884826081
189638,523469,18a54f60-534b-4ed5-8bda-b434079b8ab8,118,2019-08-22 14:06:34,cortexlab,_iblrig_tasks_trainingChoiceWorld5.2.9,546.688,CW,546.4952000000001,1.0,0.0,1.0,50,KS014,UCL,-100.0,118,-1,1.0,0.0,0.0,1.0,0.19279999999992015,1.0,1.0,12.5,right,post_correct,False,Lab 1,0.6673592639915136,0.9322443219254468,0.9978412406477407,1.7062161469050796,2.14597659112354,2.9485296537033445,,-0.0015498902732843944,0.09256420688948142,traini,14.929503884826081
189639,523470,18a54f60-534b-4ed5-8bda-b434079b8ab8,119,2019-08-22 14:06:34,cortexlab,_iblrig_tasks_trainingChoiceWorld5.2.9,551.125,CCW,550.7423,0.0,0.0625,1.0,50,KS014,UCL,6.25,119,1,1.0,1.0,1.0,,0.3826999999999998,-1.0,1.0,100.0,left,post_correct,False,Lab 1,0.6673592639915136,0.9322443219254468,0.9978412406477407,1.7062161469050796,2.14597659112354,2.9485296537033445,,-0.0015498902732843944,0.5814995143439406,traini,14.929503884826081
189640,523471,18a54f60-534b-4ed5-8bda-b434079b8ab8,120,2019-08-22 14:06:34,cortexlab,_iblrig_tasks_trainingChoiceWorld5.2.9,556.139,CCW,555.8285,0.0,1.0,1.0,50,KS014,UCL,100.0,120,1,1.0,1.0,1.0,1.0,0.3105000000000473,1.0,1.0,6.25,right,post_correct,True,Lab 1,0.6673592639915136,0.9322443219254468,0.9978412406477407,1.7062161469050796,2.14597659112354,2.9485296537033445,,-0.0015498902732843944,0.973771728758393,traini,14.929503884826081
189641,523472,18a54f60-534b-4ed5-8bda-b434079b8ab8,121,2019-08-22 14:06:34,cortexlab,_iblrig_tasks_trainingChoiceWorld5.2.9,559.094,CCW,558.7255,0.0,0.125,1.0,50,KS014,UCL,12.5,121,1,1.0,1.0,1.0,,0.36850000000004,1.0,1.0,100.0,right,post_correct,True,Lab 1,0.6673592639915136,0.9322443219254468,0.9978412406477407,1.7062161469050796,2.14597659112354,2.9485296537033445,,-0.0015498902732843944,0.9146690843806631,traini,14.929503884826081
189642,523473,18a54f60-534b-4ed5-8bda-b434079b8ab8,122,2019-08-22 14:06:34,cortexlab,_iblrig_tasks_trainingChoiceWorld5.2.9,564.053,CW,563.8283,1.0,0.0,1.0,50,KS014,UCL,-100.0,122,-1,1.0,0.0,0.0,1.0,0.22469999999998436,1.0,1.0,12.5,right,post_correct,False,Lab 1,0.6673592639915136,0.9322443219254468,0.9978412406477407,1.7062161469050796,2.14597659112354,2.9485296537033445,,-0.0015498902732843944,0.09256420688948142,traini,14.929503884826081
189643,523474,18a54f60-534b-4ed5-8bda-b434079b8ab8,123,2019-08-22 14:06:34,cortexlab,_iblrig_tasks_trainingChoiceWorld5.2.9,567.788,CCW,567.2919,0.0,0.0625,1.0,50,KS014,UCL,6.25,123,1,1.0,1.0,1.0,,0.4960999999999558,-1.0,1.0,100.0,left,post_correct,False,Lab 1,0.6673592639915136,0.9322443219254468,0.9978412406477407,1.7062161469050796,2.14597659112354,2.9485296537033445,,-0.0015498902732843944,0.5814995143439406,traini,14.929503884826081
189644,523475,18a54f60-534b-4ed5-8bda-b434079b8ab8,124,2019-08-22 14:06:34,cortexlab,_iblrig_tasks_trainingChoiceWorld5.2.9,570.573,CCW,570.2283,0.0,0.25,1.0,50,KS014,UCL,25.0,124,1,1.0,1.0,1.0,,0.3446999999999889,1.0,1.0,6.25,right,post_correct,True,Lab 1,0.6673592639915136,0.9322443219254468,0.9978412406477407,1.7062161469050796,2.14597659112354,2.9485296537033445,,-0.0015498902732843944,0.9433094024800716,traini,14.929503884826081
189645,523476,18a54f60-534b-4ed5-8bda-b434079b8ab8,125,2019-08-22 14:06:34,cortexlab,_iblrig_tasks_trainingChoiceWorld5.2.9,576.755,CCW,576.4418000000001,0.0,0.25,1.0,50,KS014,UCL,25.0,125,1,1.0,1.0,1.0,,0.313199999999938,1.0,1.0,25.0,right,post_correct,True,Lab 1,0.6673592639915136,0.9322443219254468,0.9978412406477407,1.7062161469050796,2.14597659112354,2.9485296537033445,,-0.0015498902732843944,0.9433094024800716,traini,14.929503884826081
189646,523477,18a54f60-534b-4ed5-8bda-b434079b8ab8,126,2019-08-22 14:06:34,cortexlab,_iblrig_tasks_trainingChoiceWorld5.2.9,581.221,CCW,580.8444,0.25,0.0,-1.0,50,KS014,UCL,-25.0,126,1,0.0,1.0,1.0,,0.3766000000000531,1.0,1.0,25.0,right,post_correct,True,Lab 1,0.6673592639915136,0.9322443219254468,0.9978412406477407,1.7062161469050796,2.14597659112354,2.9485296537033445,,-0.0015498902732843944,0.18540216342048807,traini,14.929503884826081
189647,523478,18a54f60-534b-4ed5-8bda-b434079b8ab8,127,2019-08-22 14:06:34,cortexlab,_iblrig_tasks_trainingChoiceWorld5.2.9,588.83,CCW,588.3415000000001,0.0625,0.0,-1.0,50,KS014,UCL,-6.25,127,1,0.0,1.0,1.0,,0.4884999999999309,1.0,-1.0,25.0,right,post_error,True,Lab 1,0.6673592639915136,0.9322443219254468,0.9978412406477407,1.7062161469050796,2.14597659112354,2.9485296537033445,,-0.0015498902732843944,0.4832196020839407,traini,14.929503884826081
189648,523479,18a54f60-534b-4ed5-8bda-b434079b8ab8,128,2019-08-22 14:06:34,cortexlab,_iblrig_tasks_trainingChoiceWorld5.2.9,594.781,CCW,594.5276,0.0,0.125,1.0,50,KS014,UCL,12.5,128,1,1.0,1.0,1.0,,0.25339999999994234,1.0,-1.0,6.25,right,post_error,True,Lab 1,0.6673592639915136,0.9322443219254468,0.9978412406477407,1.7062161469050796,2.14597659112354,2.9485296537033445,,-0.0015498902732843944,0.9331996333877426,traini,14.929503884826081
189649,523480,18a54f60-534b-4ed5-8bda-b434079b8ab8,129,2019-08-22 14:06:34,cortexlab,_iblrig_tasks_trainingChoiceWorld5.2.9,599.797,CCW,599.3745,0.0625,0.0,-1.0,50,KS014,UCL,-6.25,129,1,0.0,1.0,1.0,,0.42250000000001364,1.0,1.0,12.5,right,post_correct,True,Lab 1,0.6673592639915136,0.9322443219254468,0.9978412406477407,1.7062161469050796,2.14597659112354,2.9485296537033445,,-0.0015498902732843944,0.4177463209203398,traini,14.929503884826081
189650,523481,18a54f60-534b-4ed5-8bda-b434079b8ab8,130,2019-08-22 14:06:34,cortexlab,_iblrig_tasks_trainingChoiceWorld5.2.9,606.96,CCW,606.6774,0.0,0.25,1.0,50,KS014,UCL,25.0,130,1,1.0,1.0,1.0,,0.2826000000000022,1.0,-1.0,6.25,right,post_error,True,Lab 1,0.6673592639915136,0.9322443219254468,0.9978412406477407,1.7062161469050796,2.14597659112354,2.9485296537033445,,-0.0015498902732843944,0.9559201247285374,traini,14.929503884826081
189651,523482,18a54f60-534b-4ed5-8bda-b434079b8ab8,131,2019-08-22 14:06:34,cortexlab,_iblrig_tasks_trainingChoiceWorld5.2.9,614.726,CCW,614.4077,0.0,1.0,1.0,50,KS014,UCL,100.0,131,1,1.0,1.0,1.0,1.0,0.318300000000022,1.0,1.0,25.0,right,post_correct,True,Lab 1,0.6673592639915136,0.9322443219254468,0.9978412406477407,1.7062161469050796,2.14597659112354,2.9485296537033445,,-0.0015498902732843944,0.973771728758393,traini,14.929503884826081
189652,523483,18a54f60-534b-4ed5-8bda-b434079b8ab8,132,2019-08-22 14:06:34,cortexlab,_iblrig_tasks_trainingChoiceWorld5.2.9,617.752,CCW,617.4771999999999,0.0,0.0625,1.0,50,KS014,UCL,6.25,132,1,1.0,1.0,1.0,,0.27480000000002747,1.0,1.0,100.0,right,post_correct,True,Lab 1,0.6673592639915136,0.9322443219254468,0.9978412406477407,1.7062161469050796,2.14597659112354,2.9485296537033445,,-0.0015498902732843944,0.8407274461273994,traini,14.929503884826081
189653,523484,18a54f60-534b-4ed5-8bda-b434079b8ab8,133,2019-08-22 14:06:34,cortexlab,_iblrig_tasks_trainingChoiceWorld5.2.9,625.439,CCW,625.0909,0.0,0.25,1.0,50,KS014,UCL,25.0,133,1,1.0,1.0,1.0,,0.34809999999993124,1.0,1.0,6.25,right,post_correct,True,Lab 1,0.6673592639915136,0.9322443219254468,0.9978412406477407,1.7062161469050796,2.14597659112354,2.9485296537033445,,-0.0015498902732843944,0.9433094024800716,traini,14.929503884826081
189654,523485,18a54f60-534b-4ed5-8bda-b434079b8ab8,134,2019-08-22 14:06:34,cortexlab,_iblrig_tasks_trainingChoiceWorld5.2.9,628.176,CCW,627.8437,0.0,0.125,1.0,50,KS014,UCL,12.5,134,1,1.0,1.0,1.0,,0.332300000000032,1.0,1.0,25.0,right,post_correct,True,Lab 1,0.6673592639915136,0.9322443219254468,0.9978412406477407,1.7062161469050796,2.14597659112354,2.9485296537033445,,-0.0015498902732843944,0.9146690843806631,traini,14.929503884826081
189655,523486,18a54f60-534b-4ed5-8bda-b434079b8ab8,135,2019-08-22 14:06:34,cortexlab,_iblrig_tasks_trainingChoiceWorld5.2.9,631.91,CCW,631.624,0.0,1.0,1.0,50,KS014,UCL,100.0,135,1,1.0,1.0,1.0,1.0,0.2859999999999445,1.0,1.0,12.5,right,post_correct,True,Lab 1,0.6673592639915136,0.9322443219254468,0.9978412406477407,1.7062161469050796,2.14597659112354,2.9485296537033445,,-0.0015498902732843944,0.973771728758393,traini,14.929503884826081
189656,523487,18a54f60-534b-4ed5-8bda-b434079b8ab8,136,2019-08-22 14:06:34,cortexlab,_iblrig_tasks_trainingChoiceWorld5.2.9,635.594,CW,635.0933,0.125,0.0,1.0,50,KS014,UCL,-12.5,136,-1,1.0,0.0,0.0,,0.5007000000000517,1.0,1.0,100.0,right,post_correct,False,Lab 1,0.6673592639915136,0.9322443219254468,0.9978412406477407,1.7062161469050796,2.14597659112354,2.9485296537033445,,-0.0015498902732843944,0.261071514380921,traini,14.929503884826081
189657,523488,18a54f60-534b-4ed5-8bda-b434079b8ab8,137,2019-08-22 14:06:34,cortexlab,_iblrig_tasks_trainingChoiceWorld5.2.9,642.36,CW,642.0405000000001,0.25,0.0,1.0,50,KS014,UCL,-25.0,137,-1,1.0,0.0,0.0,,0.31949999999994816,-1.0,1.0,12.5,left,post_correct,True,Lab 1,0.6673592639915136,0.9322443219254468,0.9978412406477407,1.7062161469050796,2.14597659112354,2.9485296537033445,,-0.0015498902732843944,0.056525058866658415,traini,14.929503884826081
189658,523489,18a54f60-534b-4ed5-8bda-b434079b8ab8,138,2019-08-22 14:06:34,cortexlab,_iblrig_tasks_trainingChoiceWorld5.2.9,646.383,CW,646.1600999999999,0.25,0.0,1.0,50,KS014,UCL,-25.0,138,-1,1.0,0.0,0.0,,0.22290000000009513,-1.0,1.0,25.0,left,post_correct,True,Lab 1,0.6673592639915136,0.9322443219254468,0.9978412406477407,1.7062161469050796,2.14597659112354,2.9485296537033445,,-0.0015498902732843944,0.056525058866658415,traini,14.929503884826081
189659,523490,18a54f60-534b-4ed5-8bda-b434079b8ab8,139,2019-08-22 14:06:34,cortexlab,_iblrig_tasks_trainingChoiceWorld5.2.9,659.287,CCW,658.956901,0.0,0.0,1.0,50,KS014,UCL,0.0,139,1,,1.0,1.0,,0.33009900000001835,-1.0,1.0,25.0,left,post_correct,False,Lab 1,0.6673592639915136,0.9322443219254468,0.9978412406477407,1.7062161469050796,2.14597659112354,2.9485296537033445,,-0.0015498902732843944,0.3387411424221579,traini,14.929503884826081
189660,523491,18a54f60-534b-4ed5-8bda-b434079b8ab8,140,2019-08-22 14:06:34,cortexlab,_iblrig_tasks_trainingChoiceWorld5.2.9,666.749,CW,666.3597000000001,0.25,0.0,1.0,50,KS014,UCL,-25.0,140,-1,1.0,0.0,0.0,,0.3892999999999347,1.0,1.0,0.0,right,post_correct,False,Lab 1,0.6673592639915136,0.9322443219254468,0.9978412406477407,1.7062161469050796,2.14597659112354,2.9485296537033445,,-0.0015498902732843944,0.18540216342048807,traini,14.929503884826081
189661,523492,18a54f60-534b-4ed5-8bda-b434079b8ab8,141,2019-08-22 14:06:34,cortexlab,_iblrig_tasks_trainingChoiceWorld5.2.9,673.845,CCW,673.573301,0.0,1.0,1.0,50,KS014,UCL,100.0,141,1,1.0,1.0,1.0,1.0,0.27169900000001235,-1.0,1.0,25.0,left,post_correct,False,Lab 1,0.6673592639915136,0.9322443219254468,0.9978412406477407,1.7062161469050796,2.14597659112354,2.9485296537033445,,-0.0015498902732843944,0.9071750946694592,traini,14.929503884826081
189662,523493,18a54f60-534b-4ed5-8bda-b434079b8ab8,142,2019-08-22 14:06:34,cortexlab,_iblrig_tasks_trainingChoiceWorld5.2.9,676.986,CCW,676.7261000000001,0.0625,0.0,-1.0,50,KS014,UCL,-6.25,142,1,0.0,1.0,1.0,,0.2598999999999023,1.0,1.0,100.0,right,post_correct,True,Lab 1,0.6673592639915136,0.9322443219254468,0.9978412406477407,1.7062161469050796,2.14597659112354,2.9485296537033445,,-0.0015498902732843944,0.4177463209203398,traini,14.929503884826081
189663,523494,18a54f60-534b-4ed5-8bda-b434079b8ab8,143,2019-08-22 14:06:34,cortexlab,_iblrig_tasks_trainingChoiceWorld5.2.9,683.543,CW,683.3064009999999,0.125,0.0,1.0,50,KS014,UCL,-12.5,143,-1,1.0,0.0,0.0,,0.23659900000006928,1.0,-1.0,6.25,right,post_error,False,Lab 1,0.6673592639915136,0.9322443219254468,0.9978412406477407,1.7062161469050796,2.14597659112354,2.9485296537033445,,-0.0015498902732843944,0.3152858605772385,traini,14.929503884826081
189664,523495,18a54f60-534b-4ed5-8bda-b434079b8ab8,144,2019-08-22 14:06:34,cortexlab,_iblrig_tasks_trainingChoiceWorld5.2.9,689.817,CCW,687.4595,0.0,0.0625,1.0,50,KS014,UCL,6.25,144,1,1.0,1.0,1.0,,2.357499999999959,-1.0,1.0,12.5,left,post_correct,False,Lab 1,0.6673592639915136,0.9322443219254468,0.9978412406477407,1.7062161469050796,2.14597659112354,2.9485296537033445,,-0.0015498902732843944,0.5814995143439406,traini,14.929503884826081
189665,523496,18a54f60-534b-4ed5-8bda-b434079b8ab8,145,2019-08-22 14:06:34,cortexlab,_iblrig_tasks_trainingChoiceWorld5.2.9,693.028,CW,692.8228,0.125,0.0,1.0,50,KS014,UCL,-12.5,145,-1,1.0,0.0,0.0,,0.20519999999999072,1.0,1.0,6.25,right,post_correct,False,Lab 1,0.6673592639915136,0.9322443219254468,0.9978412406477407,1.7062161469050796,2.14597659112354,2.9485296537033445,,-0.0015498902732843944,0.261071514380921,traini,14.929503884826081
189666,523497,18a54f60-534b-4ed5-8bda-b434079b8ab8,146,2019-08-22 14:06:34,cortexlab,_iblrig_tasks_trainingChoiceWorld5.2.9,696.128,CW,695.6758000000001,0.125,0.0,1.0,50,KS014,UCL,-12.5,146,-1,1.0,0.0,0.0,,0.452199999999948,-1.0,1.0,12.5,left,post_correct,True,Lab 1,0.6673592639915136,0.9322443219254468,0.9978412406477407,1.7062161469050796,2.14597659112354,2.9485296537033445,,-0.0015498902732843944,0.08508928991624062,traini,14.929503884826081
189667,523498,18a54f60-534b-4ed5-8bda-b434079b8ab8,147,2019-08-22 14:06:34,cortexlab,_iblrig_tasks_trainingChoiceWorld5.2.9,700.407,CCW,700.0729,0.0,1.0,1.0,50,KS014,UCL,100.0,147,1,1.0,1.0,1.0,1.0,0.3341000000000349,-1.0,1.0,12.5,left,post_correct,False,Lab 1,0.6673592639915136,0.9322443219254468,0.9978412406477407,1.7062161469050796,2.14597659112354,2.9485296537033445,,-0.0015498902732843944,0.9071750946694592,traini,14.929503884826081
189668,523499,18a54f60-534b-4ed5-8bda-b434079b8ab8,148,2019-08-22 14:06:34,cortexlab,_iblrig_tasks_trainingChoiceWorld5.2.9,704.024,CCW,703.6754999999999,0.0,1.0,1.0,50,KS014,UCL,100.0,148,1,1.0,1.0,1.0,1.0,0.3485000000000582,1.0,1.0,100.0,right,post_correct,True,Lab 1,0.6673592639915136,0.9322443219254468,0.9978412406477407,1.7062161469050796,2.14597659112354,2.9485296537033445,,-0.0015498902732843944,0.973771728758393,traini,14.929503884826081
189669,523500,18a54f60-534b-4ed5-8bda-b434079b8ab8,149,2019-08-22 14:06:34,cortexlab,_iblrig_tasks_trainingChoiceWorld5.2.9,713.993,CCW,713.7392,0.0,0.25,1.0,50,KS014,UCL,25.0,149,1,1.0,1.0,1.0,,0.2538000000000693,1.0,1.0,100.0,right,post_correct,True,Lab 1,0.6673592639915136,0.9322443219254468,0.9978412406477407,1.7062161469050796,2.14597659112354,2.9485296537033445,,-0.0015498902732843944,0.9433094024800716,traini,14.929503884826081
189670,523501,18a54f60-534b-4ed5-8bda-b434079b8ab8,150,2019-08-22 14:06:34,cortexlab,_iblrig_tasks_trainingChoiceWorld5.2.9,716.829,CCW,716.4088,0.0,0.0625,1.0,50,KS014,UCL,6.25,150,1,1.0,1.0,1.0,,0.42019999999990887,1.0,1.0,25.0,right,post_correct,True,Lab 1,0.6673592639915136,0.9322443219254468,0.9978412406477407,1.7062161469050796,2.14597659112354,2.9485296537033445,,-0.0015498902732843944,0.8407274461273994,traini,14.929503884826081
189671,523502,18a54f60-534b-4ed5-8bda-b434079b8ab8,151,2019-08-22 14:06:34,cortexlab,_iblrig_tasks_trainingChoiceWorld5.2.9,724.922,CW,724.7056,0.125,0.0,1.0,50,KS014,UCL,-12.5,151,-1,1.0,0.0,0.0,,0.21640000000002146,1.0,1.0,6.25,right,post_correct,False,Lab 1,0.6673592639915136,0.9322443219254468,0.9978412406477407,1.7062161469050796,2.14597659112354,2.9485296537033445,,-0.0015498902732843944,0.261071514380921,traini,14.929503884826081
189672,523503,18a54f60-534b-4ed5-8bda-b434079b8ab8,152,2019-08-22 14:06:34,cortexlab,_iblrig_tasks_trainingChoiceWorld5.2.9,730.496,CW,730.1418,0.0625,0.0,1.0,50,KS014,UCL,-6.25,152,-1,1.0,0.0,0.0,,0.35419999999999163,-1.0,1.0,12.5,left,post_correct,True,Lab 1,0.6673592639915136,0.9322443219254468,0.9978412406477407,1.7062161469050796,2.14597659112354,2.9485296537033445,,-0.0015498902732843944,0.15885791661906887,traini,14.929503884826081
189673,523504,18a54f60-534b-4ed5-8bda-b434079b8ab8,153,2019-08-22 14:06:34,cortexlab,_iblrig_tasks_trainingChoiceWorld5.2.9,739.421,CW,739.1553,0.25,0.0,1.0,50,KS014,UCL,-25.0,153,-1,1.0,0.0,0.0,,0.265700000000038,-1.0,1.0,6.25,left,post_correct,True,Lab 1,0.6673592639915136,0.9322443219254468,0.9978412406477407,1.7062161469050796,2.14597659112354,2.9485296537033445,,-0.0015498902732843944,0.056525058866658415,traini,14.929503884826081
189674,523505,18a54f60-534b-4ed5-8bda-b434079b8ab8,154,2019-08-22 14:06:34,cortexlab,_iblrig_tasks_trainingChoiceWorld5.2.9,744.465,CCW,744.1913,0.0,0.25,1.0,50,KS014,UCL,25.0,154,1,1.0,1.0,1.0,,0.2737000000000762,-1.0,1.0,25.0,left,post_correct,False,Lab 1,0.6673592639915136,0.9322443219254468,0.9978412406477407,1.7062161469050796,2.14597659112354,2.9485296537033445,,-0.0015498902732843944,0.8141292256926564,traini,14.929503884826081
189675,523506,18a54f60-534b-4ed5-8bda-b434079b8ab8,155,2019-08-22 14:06:34,cortexlab,_iblrig_tasks_trainingChoiceWorld5.2.9,754.081,CCW,753.7885,0.0,0.25,1.0,50,KS014,UCL,25.0,155,1,1.0,1.0,1.0,,0.2925000000000182,1.0,1.0,25.0,right,post_correct,True,Lab 1,0.6673592639915136,0.9322443219254468,0.9978412406477407,1.7062161469050796,2.14597659112354,2.9485296537033445,,-0.0015498902732843944,0.9433094024800716,traini,14.929503884826081
189676,523507,18a54f60-534b-4ed5-8bda-b434079b8ab8,156,2019-08-22 14:06:34,cortexlab,_iblrig_tasks_trainingChoiceWorld5.2.9,758.059,CCW,757.6247000000001,0.0,0.0625,1.0,50,KS014,UCL,6.25,156,1,1.0,1.0,1.0,,0.43429999999989377,1.0,1.0,25.0,right,post_correct,True,Lab 1,0.6673592639915136,0.9322443219254468,0.9978412406477407,1.7062161469050796,2.14597659112354,2.9485296537033445,,-0.0015498902732843944,0.8407274461273994,traini,14.929503884826081
189677,523508,18a54f60-534b-4ed5-8bda-b434079b8ab8,157,2019-08-22 14:06:34,cortexlab,_iblrig_tasks_trainingChoiceWorld5.2.9,766.606,CCW,766.2049999999999,0.0,0.25,1.0,50,KS014,UCL,25.0,157,1,1.0,1.0,1.0,,0.4010000000000673,1.0,1.0,6.25,right,post_correct,True,Lab 1,0.6673592639915136,0.9322443219254468,0.9978412406477407,1.7062161469050796,2.14597659112354,2.9485296537033445,,-0.0015498902732843944,0.9433094024800716,traini,14.929503884826081
189678,523509,18a54f60-534b-4ed5-8bda-b434079b8ab8,158,2019-08-22 14:06:34,cortexlab,_iblrig_tasks_trainingChoiceWorld5.2.9,770.076,CW,769.7076000000001,0.0625,0.0,1.0,50,KS014,UCL,-6.25,158,-1,1.0,0.0,0.0,,0.36839999999995143,1.0,1.0,25.0,right,post_correct,False,Lab 1,0.6673592639915136,0.9322443219254468,0.9978412406477407,1.7062161469050796,2.14597659112354,2.9485296537033445,,-0.0015498902732843944,0.4177463209203398,traini,14.929503884826081
189679,523510,18a54f60-534b-4ed5-8bda-b434079b8ab8,159,2019-08-22 14:06:34,cortexlab,_iblrig_tasks_trainingChoiceWorld5.2.9,773.021,CCW,772.5215000000001,0.0,0.0625,1.0,50,KS014,UCL,6.25,159,1,1.0,1.0,1.0,,0.49949999999989814,-1.0,1.0,6.25,left,post_correct,False,Lab 1,0.6673592639915136,0.9322443219254468,0.9978412406477407,1.7062161469050796,2.14597659112354,2.9485296537033445,,-0.0015498902732843944,0.5814995143439406,traini,14.929503884826081
189680,523511,18a54f60-534b-4ed5-8bda-b434079b8ab8,160,2019-08-22 14:06:34,cortexlab,_iblrig_tasks_trainingChoiceWorld5.2.9,777.129,CW,776.991,0.0,0.0,1.0,50,KS014,UCL,0.0,160,-1,,0.0,0.0,,0.13800000000003365,1.0,1.0,6.25,right,post_correct,False,Lab 1,0.6673592639915136,0.9322443219254468,0.9978412406477407,1.7062161469050796,2.14597659112354,2.9485296537033445,,-0.0015498902732843944,0.6605641737404705,traini,14.929503884826081
189681,523512,18a54f60-534b-4ed5-8bda-b434079b8ab8,161,2019-08-22 14:06:34,cortexlab,_iblrig_tasks_trainingChoiceWorld5.2.9,780.114,CCW,779.5879,0.0,1.0,1.0,50,KS014,UCL,100.0,161,1,1.0,1.0,1.0,1.0,0.5261000000000422,-1.0,1.0,0.0,left,post_correct,False,Lab 1,0.6673592639915136,0.9322443219254468,0.9978412406477407,1.7062161469050796,2.14597659112354,2.9485296537033445,,-0.0015498902732843944,0.9071750946694592,traini,14.929503884826081
189682,523513,18a54f60-534b-4ed5-8bda-b434079b8ab8,162,2019-08-22 14:06:34,cortexlab,_iblrig_tasks_trainingChoiceWorld5.2.9,782.902,CW,782.5574,0.0625,0.0,1.0,50,KS014,UCL,-6.25,162,-1,1.0,0.0,0.0,,0.344600000000014,1.0,1.0,100.0,right,post_correct,False,Lab 1,0.6673592639915136,0.9322443219254468,0.9978412406477407,1.7062161469050796,2.14597659112354,2.9485296537033445,,-0.0015498902732843944,0.4177463209203398,traini,14.929503884826081
189683,523514,18a54f60-534b-4ed5-8bda-b434079b8ab8,163,2019-08-22 14:06:34,cortexlab,_iblrig_tasks_trainingChoiceWorld5.2.9,788.104,CW,787.8878000000001,1.0,0.0,1.0,50,KS014,UCL,-100.0,163,-1,1.0,0.0,0.0,1.0,0.21619999999995798,-1.0,1.0,6.25,left,post_correct,True,Lab 1,0.6673592639915136,0.9322443219254468,0.9978412406477407,1.7062161469050796,2.14597659112354,2.9485296537033445,,-0.0015498902732843944,0.026149217924616483,traini,14.929503884826081
189684,523515,18a54f60-534b-4ed5-8bda-b434079b8ab8,164,2019-08-22 14:06:34,cortexlab,_iblrig_tasks_trainingChoiceWorld5.2.9,804.385,CW,804.1403,1.0,0.0,1.0,50,KS014,UCL,-100.0,164,-1,1.0,0.0,0.0,1.0,0.24469999999996617,-1.0,1.0,100.0,left,post_correct,True,Lab 1,0.6673592639915136,0.9322443219254468,0.9978412406477407,1.7062161469050796,2.14597659112354,2.9485296537033445,,-0.0015498902732843944,0.026149217924616483,traini,14.929503884826081
189685,523516,18a54f60-534b-4ed5-8bda-b434079b8ab8,165,2019-08-22 14:06:34,cortexlab,_iblrig_tasks_trainingChoiceWorld5.2.9,808.39,CCW,808.0706,0.0,0.125,1.0,50,KS014,UCL,12.5,165,1,1.0,1.0,1.0,,0.31939999999997326,-1.0,1.0,100.0,left,post_correct,False,Lab 1,0.6673592639915136,0.9322443219254468,0.9978412406477407,1.7062161469050796,2.14597659112354,2.9485296537033445,,-0.0015498902732843944,0.7383300543658898,traini,14.929503884826081
189686,523517,18a54f60-534b-4ed5-8bda-b434079b8ab8,166,2019-08-22 14:06:34,cortexlab,_iblrig_tasks_trainingChoiceWorld5.2.9,811.491,CW,811.2401,1.0,0.0,1.0,50,KS014,UCL,-100.0,166,-1,1.0,0.0,0.0,1.0,0.25090000000000146,1.0,1.0,12.5,right,post_correct,False,Lab 1,0.6673592639915136,0.9322443219254468,0.9978412406477407,1.7062161469050796,2.14597659112354,2.9485296537033445,,-0.0015498902732843944,0.09256420688948142,traini,14.929503884826081
189687,523518,18a54f60-534b-4ed5-8bda-b434079b8ab8,167,2019-08-22 14:06:34,cortexlab,_iblrig_tasks_trainingChoiceWorld5.2.9,816.452,CCW,816.1206,0.0,0.0625,1.0,50,KS014,UCL,6.25,167,1,1.0,1.0,1.0,,0.33140000000003056,-1.0,1.0,100.0,left,post_correct,False,Lab 1,0.6673592639915136,0.9322443219254468,0.9978412406477407,1.7062161469050796,2.14597659112354,2.9485296537033445,,-0.0015498902732843944,0.5814995143439406,traini,14.929503884826081
189688,523519,18a54f60-534b-4ed5-8bda-b434079b8ab8,168,2019-08-22 14:06:34,cortexlab,_iblrig_tasks_trainingChoiceWorld5.2.9,823.277,CCW,822.8399,0.0,0.25,1.0,50,KS014,UCL,25.0,168,1,1.0,1.0,1.0,,0.4371000000001004,1.0,1.0,6.25,right,post_correct,True,Lab 1,0.6673592639915136,0.9322443219254468,0.9978412406477407,1.7062161469050796,2.14597659112354,2.9485296537033445,,-0.0015498902732843944,0.9433094024800716,traini,14.929503884826081
189689,523520,18a54f60-534b-4ed5-8bda-b434079b8ab8,169,2019-08-22 14:06:34,cortexlab,_iblrig_tasks_trainingChoiceWorld5.2.9,826.507,CCW,826.2037,0.0,1.0,1.0,50,KS014,UCL,100.0,169,1,1.0,1.0,1.0,1.0,0.30329999999992197,1.0,1.0,25.0,right,post_correct,True,Lab 1,0.6673592639915136,0.9322443219254468,0.9978412406477407,1.7062161469050796,2.14597659112354,2.9485296537033445,,-0.0015498902732843944,0.973771728758393,traini,14.929503884826081
189690,523521,18a54f60-534b-4ed5-8bda-b434079b8ab8,170,2019-08-22 14:06:34,cortexlab,_iblrig_tasks_trainingChoiceWorld5.2.9,832.065,CCW,831.7233,0.25,0.0,-1.0,50,KS014,UCL,-25.0,170,1,0.0,1.0,1.0,,0.34170000000005984,1.0,1.0,100.0,right,post_correct,True,Lab 1,0.6673592639915136,0.9322443219254468,0.9978412406477407,1.7062161469050796,2.14597659112354,2.9485296537033445,,-0.0015498902732843944,0.18540216342048807,traini,14.929503884826081
189691,523522,18a54f60-534b-4ed5-8bda-b434079b8ab8,171,2019-08-22 14:06:34,cortexlab,_iblrig_tasks_trainingChoiceWorld5.2.9,838.534,CCW,838.0701,0.0625,0.0,-1.0,50,KS014,UCL,-6.25,171,1,0.0,1.0,1.0,,0.4638999999999669,1.0,-1.0,25.0,right,post_error,True,Lab 1,0.6673592639915136,0.9322443219254468,0.9978412406477407,1.7062161469050796,2.14597659112354,2.9485296537033445,,-0.0015498902732843944,0.4832196020839407,traini,14.929503884826081
189692,523523,18a54f60-534b-4ed5-8bda-b434079b8ab8,172,2019-08-22 14:06:34,cortexlab,_iblrig_tasks_trainingChoiceWorld5.2.9,842.328,CCW,842.0231,0.0,0.0625,1.0,50,KS014,UCL,6.25,172,1,1.0,1.0,1.0,,0.3048999999999751,1.0,-1.0,6.25,right,post_error,True,Lab 1,0.6673592639915136,0.9322443219254468,0.9978412406477407,1.7062161469050796,2.14597659112354,2.9485296537033445,,-0.0015498902732843944,0.873087252350696,traini,14.929503884826081
189693,523524,18a54f60-534b-4ed5-8bda-b434079b8ab8,173,2019-08-22 14:06:34,cortexlab,_iblrig_tasks_trainingChoiceWorld5.2.9,845.865,CCW,845.5867000000001,0.0,1.0,1.0,50,KS014,UCL,100.0,173,1,1.0,1.0,1.0,1.0,0.2782999999999447,1.0,1.0,6.25,right,post_correct,True,Lab 1,0.6673592639915136,0.9322443219254468,0.9978412406477407,1.7062161469050796,2.14597659112354,2.9485296537033445,,-0.0015498902732843944,0.973771728758393,traini,14.929503884826081
189694,523525,18a54f60-534b-4ed5-8bda-b434079b8ab8,174,2019-08-22 14:06:34,cortexlab,_iblrig_tasks_trainingChoiceWorld5.2.9,848.889,CW,848.523,0.125,0.0,1.0,50,KS014,UCL,-12.5,174,-1,1.0,0.0,0.0,,0.36599999999998545,1.0,1.0,100.0,right,post_correct,False,Lab 1,0.6673592639915136,0.9322443219254468,0.9978412406477407,1.7062161469050796,2.14597659112354,2.9485296537033445,,-0.0015498902732843944,0.261071514380921,traini,14.929503884826081
189695,523526,18a54f60-534b-4ed5-8bda-b434079b8ab8,175,2019-08-22 14:06:34,cortexlab,_iblrig_tasks_trainingChoiceWorld5.2.9,854.006,CCW,853.6699000000001,0.0,0.0625,1.0,50,KS014,UCL,6.25,175,1,1.0,1.0,1.0,,0.33609999999987394,-1.0,1.0,12.5,left,post_correct,False,Lab 1,0.6673592639915136,0.9322443219254468,0.9978412406477407,1.7062161469050796,2.14597659112354,2.9485296537033445,,-0.0015498902732843944,0.5814995143439406,traini,14.929503884826081
189696,523527,18a54f60-534b-4ed5-8bda-b434079b8ab8,176,2019-08-22 14:06:34,cortexlab,_iblrig_tasks_trainingChoiceWorld5.2.9,859.931,CCW,859.5894010000001,0.0,0.0625,1.0,50,KS014,UCL,6.25,176,1,1.0,1.0,1.0,,0.3415989999999738,1.0,1.0,6.25,right,post_correct,True,Lab 1,0.6673592639915136,0.9322443219254468,0.9978412406477407,1.7062161469050796,2.14597659112354,2.9485296537033445,,-0.0015498902732843944,0.8407274461273994,traini,14.929503884826081
189697,523528,18a54f60-534b-4ed5-8bda-b434079b8ab8,177,2019-08-22 14:06:34,cortexlab,_iblrig_tasks_trainingChoiceWorld5.2.9,864.781,CCW,864.4697,0.0,0.125,1.0,50,KS014,UCL,12.5,177,1,1.0,1.0,1.0,,0.31129999999996016,1.0,1.0,6.25,right,post_correct,True,Lab 1,0.6673592639915136,0.9322443219254468,0.9978412406477407,1.7062161469050796,2.14597659112354,2.9485296537033445,,-0.0015498902732843944,0.9146690843806631,traini,14.929503884826081
189698,523529,18a54f60-534b-4ed5-8bda-b434079b8ab8,178,2019-08-22 14:06:34,cortexlab,_iblrig_tasks_trainingChoiceWorld5.2.9,869.507,CW,869.1391,1.0,0.0,1.0,50,KS014,UCL,-100.0,178,-1,1.0,0.0,0.0,1.0,0.36789999999996326,1.0,1.0,12.5,right,post_correct,False,Lab 1,0.6673592639915136,0.9322443219254468,0.9978412406477407,1.7062161469050796,2.14597659112354,2.9485296537033445,,-0.0015498902732843944,0.09256420688948142,traini,14.929503884826081
189699,523530,18a54f60-534b-4ed5-8bda-b434079b8ab8,179,2019-08-22 14:06:34,cortexlab,_iblrig_tasks_trainingChoiceWorld5.2.9,872.601,CCW,872.3029,0.125,0.0,-1.0,50,KS014,UCL,-12.5,179,1,0.0,1.0,1.0,,0.2980999999999767,-1.0,1.0,100.0,left,post_correct,False,Lab 1,0.6673592639915136,0.9322443219254468,0.9978412406477407,1.7062161469050796,2.14597659112354,2.9485296537033445,,-0.0015498902732843944,0.08508928991624062,traini,14.929503884826081
189700,523531,18a54f60-534b-4ed5-8bda-b434079b8ab8,180,2019-08-22 14:06:34,cortexlab,_iblrig_tasks_trainingChoiceWorld5.2.9,876.666,CW,876.2224010000001,0.0625,0.0,1.0,50,KS014,UCL,-6.25,180,-1,1.0,0.0,0.0,,0.44359899999994923,1.0,-1.0,12.5,right,post_error,False,Lab 1,0.6673592639915136,0.9322443219254468,0.9978412406477407,1.7062161469050796,2.14597659112354,2.9485296537033445,,-0.0015498902732843944,0.4832196020839407,traini,14.929503884826081
189701,523532,18a54f60-534b-4ed5-8bda-b434079b8ab8,181,2019-08-22 14:06:34,cortexlab,_iblrig_tasks_trainingChoiceWorld5.2.9,880.24,CW,879.8026,0.0625,0.0,1.0,50,KS014,UCL,-6.25,181,-1,1.0,0.0,0.0,,0.4374000000000251,-1.0,1.0,6.25,left,post_correct,True,Lab 1,0.6673592639915136,0.9322443219254468,0.9978412406477407,1.7062161469050796,2.14597659112354,2.9485296537033445,,-0.0015498902732843944,0.15885791661906887,traini,14.929503884826081
189702,523533,18a54f60-534b-4ed5-8bda-b434079b8ab8,182,2019-08-22 14:06:34,cortexlab,_iblrig_tasks_trainingChoiceWorld5.2.9,883.922,CCW,883.5722000000001,0.0,0.0625,1.0,50,KS014,UCL,6.25,182,1,1.0,1.0,1.0,,0.34979999999995925,-1.0,1.0,6.25,left,post_correct,False,Lab 1,0.6673592639915136,0.9322443219254468,0.9978412406477407,1.7062161469050796,2.14597659112354,2.9485296537033445,,-0.0015498902732843944,0.5814995143439406,traini,14.929503884826081
189703,523534,18a54f60-534b-4ed5-8bda-b434079b8ab8,183,2019-08-22 14:06:34,cortexlab,_iblrig_tasks_trainingChoiceWorld5.2.9,888.708,CCW,888.4026,0.0,0.125,1.0,50,KS014,UCL,12.5,183,1,1.0,1.0,1.0,,0.30539999999996326,1.0,1.0,6.25,right,post_correct,True,Lab 1,0.6673592639915136,0.9322443219254468,0.9978412406477407,1.7062161469050796,2.14597659112354,2.9485296537033445,,-0.0015498902732843944,0.9146690843806631,traini,14.929503884826081
189704,523535,18a54f60-534b-4ed5-8bda-b434079b8ab8,184,2019-08-22 14:06:34,cortexlab,_iblrig_tasks_trainingChoiceWorld5.2.9,891.573,CCW,891.3053,0.0,0.125,1.0,50,KS014,UCL,12.5,184,1,1.0,1.0,1.0,,0.2676999999999907,1.0,1.0,12.5,right,post_correct,True,Lab 1,0.6673592639915136,0.9322443219254468,0.9978412406477407,1.7062161469050796,2.14597659112354,2.9485296537033445,,-0.0015498902732843944,0.9146690843806631,traini,14.929503884826081
189705,523536,18a54f60-534b-4ed5-8bda-b434079b8ab8,185,2019-08-22 14:06:34,cortexlab,_iblrig_tasks_trainingChoiceWorld5.2.9,898.974,CCW,898.6691,0.0,1.0,1.0,50,KS014,UCL,100.0,185,1,1.0,1.0,1.0,1.0,0.30490000000008877,1.0,1.0,12.5,right,post_correct,True,Lab 1,0.6673592639915136,0.9322443219254468,0.9978412406477407,1.7062161469050796,2.14597659112354,2.9485296537033445,,-0.0015498902732843944,0.973771728758393,traini,14.929503884826081
189706,523537,18a54f60-534b-4ed5-8bda-b434079b8ab8,186,2019-08-22 14:06:34,cortexlab,_iblrig_tasks_trainingChoiceWorld5.2.9,907.328,CCW,906.9855,0.0,1.0,1.0,50,KS014,UCL,100.0,186,1,1.0,1.0,1.0,1.0,0.3424999999999727,1.0,1.0,100.0,right,post_correct,True,Lab 1,0.6673592639915136,0.9322443219254468,0.9978412406477407,1.7062161469050796,2.14597659112354,2.9485296537033445,,-0.0015498902732843944,0.973771728758393,traini,14.929503884826081
189707,523538,18a54f60-534b-4ed5-8bda-b434079b8ab8,187,2019-08-22 14:06:34,cortexlab,_iblrig_tasks_trainingChoiceWorld5.2.9,912.461,CCW,912.2049000000001,0.0,1.0,1.0,50,KS014,UCL,100.0,187,1,1.0,1.0,1.0,1.0,0.2560999999999467,1.0,1.0,100.0,right,post_correct,True,Lab 1,0.6673592639915136,0.9322443219254468,0.9978412406477407,1.7062161469050796,2.14597659112354,2.9485296537033445,,-0.0015498902732843944,0.973771728758393,traini,14.929503884826081
189708,523539,18a54f60-534b-4ed5-8bda-b434079b8ab8,188,2019-08-22 14:06:34,cortexlab,_iblrig_tasks_trainingChoiceWorld5.2.9,915.251,CCW,915.0187,0.0,0.0,1.0,50,KS014,UCL,0.0,188,1,,1.0,1.0,,0.23230000000000928,1.0,1.0,100.0,right,post_correct,True,Lab 1,0.6673592639915136,0.9322443219254468,0.9978412406477407,1.7062161469050796,2.14597659112354,2.9485296537033445,,-0.0015498902732843944,0.6605641737404705,traini,14.929503884826081
189709,523540,18a54f60-534b-4ed5-8bda-b434079b8ab8,189,2019-08-22 14:06:34,cortexlab,_iblrig_tasks_trainingChoiceWorld5.2.9,924.975,CW,924.605,1.0,0.0,1.0,50,KS014,UCL,-100.0,189,-1,1.0,0.0,0.0,1.0,0.37000000000000455,1.0,1.0,0.0,right,post_correct,False,Lab 1,0.6673592639915136,0.9322443219254468,0.9978412406477407,1.7062161469050796,2.14597659112354,2.9485296537033445,,-0.0015498902732843944,0.09256420688948142,traini,14.929503884826081
189710,523541,18a54f60-534b-4ed5-8bda-b434079b8ab8,190,2019-08-22 14:06:34,cortexlab,_iblrig_tasks_trainingChoiceWorld5.2.9,929.531,CCW,929.0518999999999,0.0,0.0625,1.0,50,KS014,UCL,6.25,190,1,1.0,1.0,1.0,,0.47910000000001673,-1.0,1.0,100.0,left,post_correct,False,Lab 1,0.6673592639915136,0.9322443219254468,0.9978412406477407,1.7062161469050796,2.14597659112354,2.9485296537033445,,-0.0015498902732843944,0.5814995143439406,traini,14.929503884826081
189711,523542,18a54f60-534b-4ed5-8bda-b434079b8ab8,191,2019-08-22 14:06:34,cortexlab,_iblrig_tasks_trainingChoiceWorld5.2.9,939.158,CCW,938.7713,0.0,0.0625,1.0,50,KS014,UCL,6.25,191,1,1.0,1.0,1.0,,0.3867000000000189,1.0,1.0,6.25,right,post_correct,True,Lab 1,0.6673592639915136,0.9322443219254468,0.9978412406477407,1.7062161469050796,2.14597659112354,2.9485296537033445,,-0.0015498902732843944,0.8407274461273994,traini,14.929503884826081
189712,523543,18a54f60-534b-4ed5-8bda-b434079b8ab8,192,2019-08-22 14:06:34,cortexlab,_iblrig_tasks_trainingChoiceWorld5.2.9,944.575,CCW,944.3181000000001,0.0,0.0625,1.0,50,KS014,UCL,6.25,192,1,1.0,1.0,1.0,,0.25689999999997326,1.0,1.0,6.25,right,post_correct,True,Lab 1,0.6673592639915136,0.9322443219254468,0.9978412406477407,1.7062161469050796,2.14597659112354,2.9485296537033445,,-0.0015498902732843944,0.8407274461273994,traini,14.929503884826081
189713,523544,18a54f60-534b-4ed5-8bda-b434079b8ab8,193,2019-08-22 14:06:34,cortexlab,_iblrig_tasks_trainingChoiceWorld5.2.9,948.093,CCW,947.9045,0.125,0.0,-1.0,50,KS014,UCL,-12.5,193,1,0.0,1.0,1.0,,0.18849999999997635,1.0,1.0,6.25,right,post_correct,True,Lab 1,0.6673592639915136,0.9322443219254468,0.9978412406477407,1.7062161469050796,2.14597659112354,2.9485296537033445,,-0.0015498902732843944,0.261071514380921,traini,14.929503884826081
189714,523545,18a54f60-534b-4ed5-8bda-b434079b8ab8,194,2019-08-22 14:06:34,cortexlab,_iblrig_tasks_trainingChoiceWorld5.2.9,954.157,CCW,953.9347,0.0,0.125,1.0,50,KS014,UCL,12.5,194,1,1.0,1.0,1.0,,0.22230000000001837,1.0,-1.0,12.5,right,post_error,True,Lab 1,0.6673592639915136,0.9322443219254468,0.9978412406477407,1.7062161469050796,2.14597659112354,2.9485296537033445,,-0.0015498902732843944,0.9331996333877426,traini,14.929503884826081
189715,523546,18a54f60-534b-4ed5-8bda-b434079b8ab8,195,2019-08-22 14:06:34,cortexlab,_iblrig_tasks_trainingChoiceWorld5.2.9,958.334,CW,958.054,0.25,0.0,1.0,50,KS014,UCL,-25.0,195,-1,1.0,0.0,0.0,,0.2799999999999727,1.0,1.0,12.5,right,post_correct,False,Lab 1,0.6673592639915136,0.9322443219254468,0.9978412406477407,1.7062161469050796,2.14597659112354,2.9485296537033445,,-0.0015498902732843944,0.18540216342048807,traini,14.929503884826081
189716,523547,18a54f60-534b-4ed5-8bda-b434079b8ab8,196,2019-08-22 14:06:34,cortexlab,_iblrig_tasks_trainingChoiceWorld5.2.9,961.933,CCW,961.7345,0.0,0.25,1.0,50,KS014,UCL,25.0,196,1,1.0,1.0,1.0,,0.19849999999996726,-1.0,1.0,25.0,left,post_correct,False,Lab 1,0.6673592639915136,0.9322443219254468,0.9978412406477407,1.7062161469050796,2.14597659112354,2.9485296537033445,,-0.0015498902732843944,0.8141292256926564,traini,14.929503884826081
189717,523548,18a54f60-534b-4ed5-8bda-b434079b8ab8,197,2019-08-22 14:06:34,cortexlab,_iblrig_tasks_trainingChoiceWorld5.2.9,966.243,CW,965.9706,0.125,0.0,1.0,50,KS014,UCL,-12.5,197,-1,1.0,0.0,0.0,,0.2724000000000615,1.0,1.0,25.0,right,post_correct,False,Lab 1,0.6673592639915136,0.9322443219254468,0.9978412406477407,1.7062161469050796,2.14597659112354,2.9485296537033445,,-0.0015498902732843944,0.261071514380921,traini,14.929503884826081
189718,523549,18a54f60-534b-4ed5-8bda-b434079b8ab8,198,2019-08-22 14:06:34,cortexlab,_iblrig_tasks_trainingChoiceWorld5.2.9,973.415,CCW,973.101,0.0,0.0625,1.0,50,KS014,UCL,6.25,198,1,1.0,1.0,1.0,,0.31399999999996453,-1.0,1.0,12.5,left,post_correct,False,Lab 1,0.6673592639915136,0.9322443219254468,0.9978412406477407,1.7062161469050796,2.14597659112354,2.9485296537033445,,-0.0015498902732843944,0.5814995143439406,traini,14.929503884826081
189719,523550,18a54f60-534b-4ed5-8bda-b434079b8ab8,199,2019-08-22 14:06:34,cortexlab,_iblrig_tasks_trainingChoiceWorld5.2.9,977.299,CCW,977.0372,0.125,0.0,-1.0,50,KS014,UCL,-12.5,199,1,0.0,1.0,1.0,,0.2617999999999938,1.0,1.0,6.25,right,post_correct,True,Lab 1,0.6673592639915136,0.9322443219254468,0.9978412406477407,1.7062161469050796,2.14597659112354,2.9485296537033445,,-0.0015498902732843944,0.261071514380921,traini,14.929503884826081
189720,523551,18a54f60-534b-4ed5-8bda-b434079b8ab8,200,2019-08-22 14:06:34,cortexlab,_iblrig_tasks_trainingChoiceWorld5.2.9,981.753,CW,981.3675010000001,0.0625,0.0,1.0,50,KS014,UCL,-6.25,200,-1,1.0,0.0,0.0,,0.3854989999999816,1.0,-1.0,12.5,right,post_error,False,Lab 1,0.6673592639915136,0.9322443219254468,0.9978412406477407,1.7062161469050796,2.14597659112354,2.9485296537033445,,-0.0015498902732843944,0.4832196020839407,traini,14.929503884826081
189721,523552,18a54f60-534b-4ed5-8bda-b434079b8ab8,201,2019-08-22 14:06:34,cortexlab,_iblrig_tasks_trainingChoiceWorld5.2.9,984.851,CCW,984.5535,0.0,1.0,1.0,50,KS014,UCL,100.0,201,1,1.0,1.0,1.0,1.0,0.29750000000001364,-1.0,1.0,6.25,left,post_correct,False,Lab 1,0.6673592639915136,0.9322443219254468,0.9978412406477407,1.7062161469050796,2.14597659112354,2.9485296537033445,,-0.0015498902732843944,0.9071750946694592,traini,14.929503884826081
189722,523553,18a54f60-534b-4ed5-8bda-b434079b8ab8,202,2019-08-22 14:06:34,cortexlab,_iblrig_tasks_trainingChoiceWorld5.2.9,992.517,CCW,992.1007000000001,0.0,0.0,1.0,50,KS014,UCL,0.0,202,1,,1.0,1.0,,0.41629999999997835,1.0,1.0,100.0,right,post_correct,True,Lab 1,0.6673592639915136,0.9322443219254468,0.9978412406477407,1.7062161469050796,2.14597659112354,2.9485296537033445,,-0.0015498902732843944,0.6605641737404705,traini,14.929503884826081
189723,523554,18a54f60-534b-4ed5-8bda-b434079b8ab8,203,2019-08-22 14:06:34,cortexlab,_iblrig_tasks_trainingChoiceWorld5.2.9,995.979,CCW,995.7035000000001,0.0,0.125,1.0,50,KS014,UCL,12.5,203,1,1.0,1.0,1.0,,0.27549999999996544,1.0,1.0,0.0,right,post_correct,True,Lab 1,0.6673592639915136,0.9322443219254468,0.9978412406477407,1.7062161469050796,2.14597659112354,2.9485296537033445,,-0.0015498902732843944,0.9146690843806631,traini,14.929503884826081
189724,523555,18a54f60-534b-4ed5-8bda-b434079b8ab8,204,2019-08-22 14:06:34,cortexlab,_iblrig_tasks_trainingChoiceWorld5.2.9,1000.7,CCW,1000.4337,0.0,0.25,1.0,50,KS014,UCL,25.0,204,1,1.0,1.0,1.0,,0.2663000000000011,1.0,1.0,12.5,right,post_correct,True,Lab 1,0.6673592639915136,0.9322443219254468,0.9978412406477407,1.7062161469050796,2.14597659112354,2.9485296537033445,,-0.0015498902732843944,0.9433094024800716,traini,14.929503884826081
189725,523556,18a54f60-534b-4ed5-8bda-b434079b8ab8,205,2019-08-22 14:06:34,cortexlab,_iblrig_tasks_trainingChoiceWorld5.2.9,1003.44,CCW,1003.1367,0.0,0.0625,1.0,50,KS014,UCL,6.25,205,1,1.0,1.0,1.0,,0.30330000000003565,1.0,1.0,25.0,right,post_correct,True,Lab 1,0.6673592639915136,0.9322443219254468,0.9978412406477407,1.7062161469050796,2.14597659112354,2.9485296537033445,,-0.0015498902732843944,0.8407274461273994,traini,14.929503884826081
189726,523557,18a54f60-534b-4ed5-8bda-b434079b8ab8,206,2019-08-22 14:06:34,cortexlab,_iblrig_tasks_trainingChoiceWorld5.2.9,1010.11,CCW,1009.8337,0.0,1.0,1.0,50,KS014,UCL,100.0,206,1,1.0,1.0,1.0,1.0,0.276299999999992,1.0,1.0,6.25,right,post_correct,True,Lab 1,0.6673592639915136,0.9322443219254468,0.9978412406477407,1.7062161469050796,2.14597659112354,2.9485296537033445,,-0.0015498902732843944,0.973771728758393,traini,14.929503884826081
189727,523558,18a54f60-534b-4ed5-8bda-b434079b8ab8,207,2019-08-22 14:06:34,cortexlab,_iblrig_tasks_trainingChoiceWorld5.2.9,1016.43,CCW,1016.153,0.0,0.25,1.0,50,KS014,UCL,25.0,207,1,1.0,1.0,1.0,,0.27699999999992997,1.0,1.0,100.0,right,post_correct,True,Lab 1,0.6673592639915136,0.9322443219254468,0.9978412406477407,1.7062161469050796,2.14597659112354,2.9485296537033445,,-0.0015498902732843944,0.9433094024800716,traini,14.929503884826081
189728,523559,18a54f60-534b-4ed5-8bda-b434079b8ab8,208,2019-08-22 14:06:34,cortexlab,_iblrig_tasks_trainingChoiceWorld5.2.9,1020.85,CW,1020.45,0.25,0.0,1.0,50,KS014,UCL,-25.0,208,-1,1.0,0.0,0.0,,0.39999999999997726,1.0,1.0,25.0,right,post_correct,False,Lab 1,0.6673592639915136,0.9322443219254468,0.9978412406477407,1.7062161469050796,2.14597659112354,2.9485296537033445,,-0.0015498902732843944,0.18540216342048807,traini,14.929503884826081
189729,523560,18a54f60-534b-4ed5-8bda-b434079b8ab8,209,2019-08-22 14:06:34,cortexlab,_iblrig_tasks_trainingChoiceWorld5.2.9,1023.51,CCW,1023.2860000000001,0.0,1.0,1.0,50,KS014,UCL,100.0,209,1,1.0,1.0,1.0,1.0,0.2239999999999327,-1.0,1.0,25.0,left,post_correct,False,Lab 1,0.6673592639915136,0.9322443219254468,0.9978412406477407,1.7062161469050796,2.14597659112354,2.9485296537033445,,-0.0015498902732843944,0.9071750946694592,traini,14.929503884826081
189730,523561,18a54f60-534b-4ed5-8bda-b434079b8ab8,210,2019-08-22 14:06:34,cortexlab,_iblrig_tasks_trainingChoiceWorld5.2.9,1028.22,CW,1028.0666,0.0,1.0,-1.0,50,KS014,UCL,100.0,210,-1,0.0,0.0,0.0,0.0,0.1533999999999196,1.0,1.0,100.0,right,post_correct,False,Lab 1,0.6673592639915136,0.9322443219254468,0.9978412406477407,1.7062161469050796,2.14597659112354,2.9485296537033445,,-0.0015498902732843944,0.973771728758393,traini,14.929503884826081
189731,523562,18a54f60-534b-4ed5-8bda-b434079b8ab8,211,2019-08-22 14:06:34,cortexlab,_iblrig_tasks_trainingChoiceWorld5.2.9,1032.27,CW,1032.0195,1.0,0.0,1.0,50,KS014,UCL,-100.0,211,-1,1.0,0.0,0.0,1.0,0.2504999999998745,-1.0,-1.0,100.0,left,post_error,True,Lab 1,0.6673592639915136,0.9322443219254468,0.9978412406477407,1.7062161469050796,2.14597659112354,2.9485296537033445,,-0.0015498902732843944,0.0201869809791455,traini,14.929503884826081
189732,523563,18a54f60-534b-4ed5-8bda-b434079b8ab8,212,2019-08-22 14:06:34,cortexlab,_iblrig_tasks_trainingChoiceWorld5.2.9,1035.93,CW,1035.7164,1.0,0.0,1.0,50,KS014,UCL,-100.0,212,-1,1.0,0.0,0.0,1.0,0.2136000000000422,-1.0,1.0,100.0,left,post_correct,True,Lab 1,0.6673592639915136,0.9322443219254468,0.9978412406477407,1.7062161469050796,2.14597659112354,2.9485296537033445,,-0.0015498902732843944,0.026149217924616483,traini,14.929503884826081
189733,523564,18a54f60-534b-4ed5-8bda-b434079b8ab8,213,2019-08-22 14:06:34,cortexlab,_iblrig_tasks_trainingChoiceWorld5.2.9,1039.44,CW,1039.2194000000002,1.0,0.0,1.0,50,KS014,UCL,-100.0,213,-1,1.0,0.0,0.0,1.0,0.22059999999987667,-1.0,1.0,100.0,left,post_correct,True,Lab 1,0.6673592639915136,0.9322443219254468,0.9978412406477407,1.7062161469050796,2.14597659112354,2.9485296537033445,,-0.0015498902732843944,0.026149217924616483,traini,14.929503884826081
189734,523565,18a54f60-534b-4ed5-8bda-b434079b8ab8,214,2019-08-22 14:06:34,cortexlab,_iblrig_tasks_trainingChoiceWorld5.2.9,1046.2,CW,1045.9661,0.0625,0.0,1.0,50,KS014,UCL,-6.25,214,-1,1.0,0.0,0.0,,0.2338999999999487,-1.0,1.0,100.0,left,post_correct,True,Lab 1,0.6673592639915136,0.9322443219254468,0.9978412406477407,1.7062161469050796,2.14597659112354,2.9485296537033445,,-0.0015498902732843944,0.15885791661906887,traini,14.929503884826081
189735,523566,18a54f60-534b-4ed5-8bda-b434079b8ab8,215,2019-08-22 14:06:34,cortexlab,_iblrig_tasks_trainingChoiceWorld5.2.9,1052.61,CCW,1052.4025,0.0,0.0625,1.0,50,KS014,UCL,6.25,215,1,1.0,1.0,1.0,,0.2074999999999818,-1.0,1.0,6.25,left,post_correct,False,Lab 1,0.6673592639915136,0.9322443219254468,0.9978412406477407,1.7062161469050796,2.14597659112354,2.9485296537033445,,-0.0015498902732843944,0.5814995143439406,traini,14.929503884826081
189736,523567,18a54f60-534b-4ed5-8bda-b434079b8ab8,216,2019-08-22 14:06:34,cortexlab,_iblrig_tasks_trainingChoiceWorld5.2.9,1063.73,CCW,1063.4326999999998,0.0625,0.0,-1.0,50,KS014,UCL,-6.25,216,1,0.0,1.0,1.0,,0.29730000000017753,1.0,1.0,6.25,right,post_correct,True,Lab 1,0.6673592639915136,0.9322443219254468,0.9978412406477407,1.7062161469050796,2.14597659112354,2.9485296537033445,,-0.0015498902732843944,0.4177463209203398,traini,14.929503884826081
189737,523568,18a54f60-534b-4ed5-8bda-b434079b8ab8,217,2019-08-22 14:06:34,cortexlab,_iblrig_tasks_trainingChoiceWorld5.2.9,1067.75,CCW,1067.5355,0.0,0.125,1.0,50,KS014,UCL,12.5,217,1,1.0,1.0,1.0,,0.21450000000004366,1.0,-1.0,6.25,right,post_error,True,Lab 1,0.6673592639915136,0.9322443219254468,0.9978412406477407,1.7062161469050796,2.14597659112354,2.9485296537033445,,-0.0015498902732843944,0.9331996333877426,traini,14.929503884826081
189738,523569,18a54f60-534b-4ed5-8bda-b434079b8ab8,218,2019-08-22 14:06:34,cortexlab,_iblrig_tasks_trainingChoiceWorld5.2.9,1072.65,CW,1072.4159000000002,1.0,0.0,1.0,50,KS014,UCL,-100.0,218,-1,1.0,0.0,0.0,1.0,0.2340999999998985,1.0,1.0,12.5,right,post_correct,False,Lab 1,0.6673592639915136,0.9322443219254468,0.9978412406477407,1.7062161469050796,2.14597659112354,2.9485296537033445,,-0.0015498902732843944,0.09256420688948142,traini,14.929503884826081
189739,523570,18a54f60-534b-4ed5-8bda-b434079b8ab8,219,2019-08-22 14:06:34,cortexlab,_iblrig_tasks_trainingChoiceWorld5.2.9,1076.81,CCW,1076.4184,0.0,0.125,1.0,50,KS014,UCL,12.5,219,1,1.0,1.0,1.0,,0.3915999999999258,-1.0,1.0,100.0,left,post_correct,False,Lab 1,0.6673592639915136,0.9322443219254468,0.9978412406477407,1.7062161469050796,2.14597659112354,2.9485296537033445,,-0.0015498902732843944,0.7383300543658898,traini,14.929503884826081
189740,523571,18a54f60-534b-4ed5-8bda-b434079b8ab8,220,2019-08-22 14:06:34,cortexlab,_iblrig_tasks_trainingChoiceWorld5.2.9,1080.15,CCW,1079.5323999999998,0.0,0.0625,1.0,50,KS014,UCL,6.25,220,1,1.0,1.0,1.0,,0.6176000000002659,1.0,1.0,12.5,right,post_correct,True,Lab 1,0.6673592639915136,0.9322443219254468,0.9978412406477407,1.7062161469050796,2.14597659112354,2.9485296537033445,,-0.0015498902732843944,0.8407274461273994,traini,14.929503884826081
189741,523572,18a54f60-534b-4ed5-8bda-b434079b8ab8,221,2019-08-22 14:06:34,cortexlab,_iblrig_tasks_trainingChoiceWorld5.2.9,1084.69,CW,1084.4685,1.0,0.0,1.0,50,KS014,UCL,-100.0,221,-1,1.0,0.0,0.0,1.0,0.2215000000001055,1.0,1.0,6.25,right,post_correct,False,Lab 1,0.6673592639915136,0.9322443219254468,0.9978412406477407,1.7062161469050796,2.14597659112354,2.9485296537033445,,-0.0015498902732843944,0.09256420688948142,traini,14.929503884826081
189742,523573,18a54f60-534b-4ed5-8bda-b434079b8ab8,222,2019-08-22 14:06:34,cortexlab,_iblrig_tasks_trainingChoiceWorld5.2.9,1090.72,CCW,1088.4655010000001,1.0,0.0,-1.0,50,KS014,UCL,-100.0,222,1,0.0,1.0,1.0,0.0,2.254498999999896,-1.0,1.0,100.0,left,post_correct,False,Lab 1,0.6673592639915136,0.9322443219254468,0.9978412406477407,1.7062161469050796,2.14597659112354,2.9485296537033445,,-0.0015498902732843944,0.026149217924616483,traini,14.929503884826081
189743,523574,18a54f60-534b-4ed5-8bda-b434079b8ab8,223,2019-08-22 14:06:34,cortexlab,_iblrig_tasks_trainingChoiceWorld5.2.9,1097.7,CCW,1094.4516,0.0,1.0,1.0,50,KS014,UCL,100.0,223,1,1.0,1.0,1.0,1.0,3.248399999999947,1.0,-1.0,100.0,right,post_error,True,Lab 1,0.6673592639915136,0.9322443219254468,0.9978412406477407,1.7062161469050796,2.14597659112354,2.9485296537033445,,-0.0015498902732843944,0.9797516157376531,traini,14.929503884826081
189744,523575,18a54f60-534b-4ed5-8bda-b434079b8ab8,224,2019-08-22 14:06:34,cortexlab,_iblrig_tasks_trainingChoiceWorld5.2.9,1100.81,CCW,1100.1987000000001,0.0,1.0,1.0,50,KS014,UCL,100.0,224,1,1.0,1.0,1.0,1.0,0.611299999999801,1.0,1.0,100.0,right,post_correct,True,Lab 1,0.6673592639915136,0.9322443219254468,0.9978412406477407,1.7062161469050796,2.14597659112354,2.9485296537033445,,-0.0015498902732843944,0.973771728758393,traini,14.929503884826081
